Elapsed time,ax,ay,az,temp,EDA
'0:00.000',0.42995392,-1.01999178,-0.08003998,27.00006867,0.42506021
'0:00.125',0.41998810,-1.01999178,-0.07004120,27.00006867,0.42506021
'0:00.250',0.41998810,-1.01999178,-0.08003998,27.00006867,0.42506021
'0:00.375',0.41998810,-1.01999178,-0.07004120,27.00006867,0.42506021
'0:00.500',0.41998810,-1.01999178,-0.08003998,27.00006867,0.42506021
'0:00.625',0.40997482,-1.01999178,-0.07004120,27.00006867,0.42408449
'0:00.750',0.40997482,-1.01999178,-0.08003998,27.00006867,0.42506021
'0:00.875',0.41998810,-1.01999178,-0.07004120,27.00006867,0.42408449
'0:01.000',0.40997482,-1.01999178,-0.07004120,27.00006867,0.42506021
'0:01.125',0.40997482,-1.01999178,-0.07004120,27.00006867,0.42506021
'0:01.250',0.40997482,-1.00999471,-0.07004120,27.00006867,0.42506021
'0:01.375',0.39996155,-1.01999178,-0.09003876,27.00006867,0.42807608
'0:01.500',0.40997482,-1.01999178,-0.08003998,27.00006867,0.42506021
'0:01.625',0.40997482,-1.01999178,-0.06004242,27.00006867,0.42506021
'0:01.750',0.40997482,-1.02998885,-0.08003998,27.00006867,0.42506021
'0:01.875',0.40997482,-1.01999178,-0.09003876,27.00006867,0.42506021
'0:02.000',0.41998810,-1.01999178,-0.07004120,27.00006867,0.42506021
'0:02.125',0.43996719,-1.02998885,-0.07004120,27.00006867,0.42506021
'0:02.250',0.40997482,-1.01999178,-0.07004120,27.00006867,0.42506021
'0:02.375',0.40997482,-1.01999178,-0.08003998,27.00006867,0.42506021
'0:02.500',0.41998810,-1.01999178,-0.06004242,27.00006867,0.42506021
'0:02.625',0.41998810,-1.01999178,-0.07004120,27.00006867,0.42506021
'0:02.750',0.40997482,-1.01999178,-0.07004120,27.00006867,0.42701166
'0:02.875',0.41998810,-1.01999178,-0.07004120,27.00006867,0.42408449
'0:03.000',0.41998810,-1.01999178,-0.07004120,27.00006867,0.42506021
'0:03.125',0.41998810,-1.01999178,-0.08003998,27.00006867,0.42506021
'0:03.250',0.41998810,-1.01999178,-0.07004120,27.00006867,0.42408449
'0:03.375',0.41998810,-1.01999178,-0.07004120,27.00006867,0.42506021
'0:03.500',0.41998810,-1.01999178,-0.07004120,27.00006867,0.42506021
'0:03.625',0.41998810,-1.01999178,-0.07004120,27.00006867,0.42506021
'0:03.750',0.40997482,-1.01999178,-0.07004120,27.00006867,0.42506021
'0:03.875',0.41998810,-1.01999178,-0.07004120,27.00006867,0.42408449
'0:04.000',0.41998810,-1.01999178,-0.07004120,27.00006867,0.42506021
'0:04.125',0.41998810,-1.01999178,-0.07004120,27.20000305,0.42506021
'0:04.250',0.41998810,-1.01999178,-0.07004120,27.00006867,0.42506021
'0:04.375',0.41998810,-1.01999178,-0.08003998,27.00006867,0.42506021
'0:04.500',0.41998810,-1.01999178,-0.07004120,27.00006867,0.42506021
'0:04.625',0.41998810,-1.01999178,-0.07004120,27.00006867,0.42506021
'0:04.750',0.41998810,-1.01999178,-0.07004120,27.00006867,0.42408449
'0:04.875',0.41998810,-1.01999178,-0.07004120,27.00006867,0.42000420
'0:05.000',0.40997482,-1.01999178,-0.08003998,27.00006867,0.42506021
'0:05.125',0.41998810,-1.01999178,-0.07004120,27.00006867,0.42106862
'0:05.250',0.42995392,-1.02998885,-0.08003998,27.00006867,0.41902847
'0:05.375',0.41998810,-1.02998885,-0.08003998,27.20000305,0.42106862
'0:05.500',0.41998810,-1.01999178,-0.08003998,27.20000305,0.42506021
'0:05.625',0.40997482,-1.01999178,-0.07004120,27.00006867,0.41902847
'0:05.750',0.41998810,-1.01999178,-0.08003998,27.20000305,0.41902847
'0:05.875',0.41998810,-1.02998885,-0.08003998,27.20000305,0.41902847
'0:06.000',0.41998810,-1.01999178,-0.08003998,27.20000305,0.41902847
'0:06.125',0.41998810,-1.01999178,-0.07004120,27.20000305,0.41902847
'0:06.250',0.40997482,-1.01999178,-0.08003998,27.20000305,0.41902847
'0:06.375',0.41998810,-1.01999178,-0.07004120,27.20000305,0.41902847
'0:06.500',0.41998810,-1.01999178,-0.08003998,27.20000305,0.41902847
'0:06.625',0.41998810,-1.01999178,-0.07004120,27.00006867,0.41902847
'0:06.750',0.41998810,-1.01999178,-0.07004120,27.20000305,0.41902847
'0:06.875',0.41998810,-1.01999178,-0.07004120,27.20000305,0.41902847
'0:07.000',0.41998810,-1.01999178,-0.08003998,27.00006867,0.41902847
'0:07.125',0.41998810,-1.01999178,-0.07004120,27.00006867,0.41805275
'0:07.250',0.41998810,-1.01999178,-0.08003998,27.20000305,0.41805275
'0:07.375',0.41998810,-1.01999178,-0.07004120,27.20000305,0.41805275
'0:07.500',0.41998810,-1.01999178,-0.07004120,27.00006867,0.41902847
'0:07.625',0.41998810,-1.01999178,-0.07004120,27.20000305,0.41902847
'0:07.750',0.41998810,-1.01999178,-0.07004120,27.20000305,0.41902847
'0:07.875',0.41998810,-1.01999178,-0.07004120,27.20000305,0.41902847
'0:08.000',0.41998810,-1.01999178,-0.07004120,27.20000305,0.41902847
'0:08.125',0.41998810,-1.01999178,-0.07004120,27.20000305,0.41902847
'0:08.250',0.41998810,-1.01999178,-0.08003998,27.20000305,0.41601260
'0:08.375',0.40997482,-1.01999178,-0.07004120,27.20000305,0.41503688
'0:08.500',0.41998810,-1.01999178,-0.07004120,27.20000305,0.41202101
'0:08.625',0.40997482,-1.01999178,-0.07004120,27.20000305,0.41308544
'0:08.750',0.40997482,-1.02998885,-0.07004120,27.20000305,0.41308544
'0:08.875',0.41998810,-1.01999178,-0.07004120,27.20000305,0.41308544
'0:09.000',0.41998810,-1.01999178,-0.07004120,27.20000305,0.41308544
'0:09.125',0.40997482,-1.01999178,-0.07004120,27.20000305,0.41308544
'0:09.250',0.41998810,-1.01999178,-0.07004120,27.20000305,0.41308544
'0:09.375',0.41998810,-1.01999178,-0.07004120,27.20000305,0.41202101
'0:09.500',0.41998810,-1.01999178,-0.07004120,27.20000305,0.41308544
'0:09.625',0.41998810,-1.01999178,-0.08003998,27.20000305,0.41202101
'0:09.750',0.41998810,-1.01999178,-0.07004120,27.20000305,0.41308544
'0:09.875',0.41998810,-1.01999178,-0.08003998,27.20000305,0.41308544
'0:10.000',0.41998810,-1.01999178,-0.07004120,27.20000305,0.41308544
'0:10.125',0.41998810,-1.01999178,-0.07004120,27.20000305,0.40900514
'0:10.250',0.40997482,-1.01999178,-0.08003998,27.20000305,0.40900514
'0:10.375',0.41998810,-1.01999178,-0.08003998,27.20000305,0.41202101
'0:10.500',0.41998810,-1.01999178,-0.08003998,27.20000305,0.41308544
'0:10.625',0.41998810,-1.02998885,-0.07004120,27.20000305,0.41006957
'0:10.750',0.42995392,-1.01999178,-0.08003998,27.40005188,0.41308544
'0:10.875',0.41998810,-1.00999471,-0.09003876,27.20000305,0.40900514
'0:11.000',0.41998810,-1.00999471,-0.09003876,27.20000305,0.41006957
'0:11.125',0.42995392,-1.01999178,-0.08003998,27.20000305,0.40900514
'0:11.250',0.42995392,-1.01999178,-0.08003998,27.20000305,0.41006957
'0:11.375',0.41998810,-1.01999178,-0.09003876,27.20000305,0.41006957
'0:11.500',0.42995392,-1.01999178,-0.09003876,27.20000305,0.41006957
'0:11.625',0.42995392,-1.01999178,-0.08003998,27.20000305,0.41006957
'0:11.750',0.42995392,-1.01999178,-0.08003998,27.20000305,0.41006957
'0:11.875',0.41998810,-1.01999178,-0.08003998,27.20000305,0.40900514
'0:12.000',0.42995392,-1.01999178,-0.09003876,27.40005188,0.41006957
'0:12.125',0.42995392,-1.01999178,-0.09003876,27.20000305,0.41006957
'0:12.250',0.42995392,-1.01999178,-0.08003998,27.40005188,0.40705370
'0:12.375',0.41998810,-1.01999178,-0.09003876,27.20000305,0.40705370
'0:12.500',0.42995392,-1.01999178,-0.08003998,27.20000305,0.41006957
'0:12.625',0.42995392,-1.01999178,-0.08003998,27.40005188,0.40705370
'0:12.750',0.42995392,-1.01999178,-0.08003998,27.20000305,0.40705370
'0:12.875',0.42995392,-1.01999178,-0.07004120,27.40005188,0.40705370
'0:13.000',0.41998810,-1.01999178,-0.08003998,27.40005188,0.40705370
'0:13.125',0.42995392,-1.01999178,-0.09003876,27.20000305,0.40705370
'0:13.250',0.41998810,-1.01999178,-0.07004120,27.40005188,0.40705370
'0:13.375',0.42995392,-1.00999471,-0.08003998,27.20000305,0.40705370
'0:13.500',0.42995392,-1.01999178,-0.08003998,27.20000305,0.40607797
'0:13.625',0.42995392,-1.01999178,-0.08003998,27.20000305,0.40705370
'0:13.750',0.42995392,-1.01999178,-0.08003998,27.40005188,0.40607797
'0:13.875',0.42995392,-1.01999178,-0.08003998,27.40005188,0.40705370
'0:14.000',0.42995392,-1.01999178,-0.08003998,27.20000305,0.40705370
'0:14.125',0.43996719,-1.01999178,-0.08003998,27.20000305,0.40607797
'0:14.250',0.41998810,-1.00999471,-0.08003998,27.40005188,0.40607797
'0:14.375',0.43996719,-1.00999471,-0.08003998,27.40005188,0.40607797
'0:14.500',0.42995392,-1.01999178,-0.08003998,27.40005188,0.40306211
'0:14.625',0.42995392,-1.01999178,-0.08003998,27.40005188,0.40705370
'0:14.750',0.43996719,-1.01999178,-0.08003998,27.40005188,0.40705370
'0:14.875',0.43996719,-1.01999178,-0.08003998,27.40005188,0.40705370
'0:15.000',0.42995392,-1.01999178,-0.08003998,27.40005188,0.40705370
'0:15.125',0.42995392,-1.01999178,-0.08003998,27.40005188,0.40208638
'0:15.250',0.42995392,-1.00999471,-0.07004120,27.40005188,0.40705370
'0:15.375',0.41998810,-1.01999178,-0.08003998,27.40005188,0.40705370
'0:15.500',0.41998810,-1.01999178,-0.08003998,27.40005188,0.40705370
'0:15.625',0.42995392,-1.01999178,-0.08003998,27.40005188,0.40306211
'0:15.750',0.42995392,-1.01999178,-0.07004120,27.40005188,0.40705370
'0:15.875',0.42995392,-1.01999178,-0.07004120,27.40005188,0.40306211
'0:16.000',0.42995392,-1.01999178,-0.08003998,27.40005188,0.40208638
'0:16.125',0.43996719,-1.01999178,-0.08003998,27.40005188,0.40102196
'0:16.250',0.44998047,-1.02998885,-0.08003998,27.40005188,0.40004624
'0:16.375',0.43996719,-1.02998885,-0.08003998,27.40005188,0.40306211
'0:16.500',0.42995392,-1.01999178,-0.09003876,27.40005188,0.40306211
'0:16.625',0.40997482,-1.00999471,-0.07004120,27.40005188,0.40705370
'0:16.750',0.40997482,-1.01999178,-0.08003998,27.40005188,0.40306211
'0:16.875',0.41998810,-1.01999178,-0.07004120,27.40005188,0.40705370
'0:17.000',0.41998810,-1.01999178,-0.08003998,27.40005188,0.40306211
'0:17.125',0.41998810,-1.01999178,-0.07004120,27.40005188,0.40705370
'0:17.250',0.40997482,-1.01999178,-0.08003998,27.40005188,0.40306211
'0:17.375',0.41998810,-1.01999178,-0.07004120,27.40005188,0.40102196
'0:17.500',0.41998810,-1.01999178,-0.08003998,27.40005188,0.40306211
'0:17.625',0.41998810,-1.02998885,-0.08003998,27.40005188,0.40306211
'0:17.750',0.41998810,-1.01999178,-0.08003998,27.40005188,0.40102196
'0:17.875',0.40997482,-1.01999178,-0.07004120,27.40005188,0.40705370
'0:18.000',0.40997482,-1.00999471,-0.07004120,27.40005188,0.40102196
'0:18.125',0.41998810,-1.01999178,-0.07004120,27.40005188,0.40102196
'0:18.250',0.40997482,-1.01999178,-0.07004120,27.40005188,0.40102196
'0:18.375',0.41998810,-1.01999178,-0.08003998,27.40005188,0.40306211
'0:18.500',0.41998810,-1.01999178,-0.07004120,27.40005188,0.40004624
'0:18.625',0.41998810,-1.01999178,-0.07004120,27.40005188,0.40102196
'0:18.750',0.41998810,-1.01999178,-0.07004120,27.40005188,0.40004624
'0:18.875',0.41998810,-1.01999178,-0.07004120,27.40005188,0.40102196
'0:19.000',0.41998810,-1.01999178,-0.07004120,27.40005188,0.40004624
'0:19.125',0.41998810,-1.01999178,-0.07004120,27.40005188,0.40102196
'0:19.250',0.41998810,-1.01999178,-0.07004120,27.40005188,0.40102196
'0:19.375',0.40997482,-1.01999178,-0.07004120,27.40005188,0.40102196
'0:19.500',0.41998810,-1.01999178,-0.07004120,27.40005188,0.40102196
'0:19.625',0.40997482,-1.01999178,-0.06004242,27.40005188,0.40102196
'0:19.750',0.41998810,-1.01999178,-0.07004120,27.40005188,0.40102196
'0:19.875',0.41998810,-1.01999178,-0.07004120,27.60010071,0.40102196
'0:20.000',0.41998810,-1.01999178,-0.07004120,27.60010071,0.40102196
'0:20.125',0.41998810,-1.01999178,-0.07004120,27.40005188,0.40102196
'0:20.250',0.41998810,-1.01999178,-0.07004120,27.40005188,0.40102196
'0:20.375',0.40997482,-1.01999178,-0.07004120,27.60010071,0.40102196
'0:20.500',0.40997482,-1.01999178,-0.07004120,27.40005188,0.40102196
'0:20.625',0.41998810,-1.01999178,-0.07004120,27.40005188,0.40102196
'0:20.750',0.41998810,-1.01999178,-0.07004120,27.60010071,0.40102196
'0:20.875',0.41998810,-1.01999178,-0.07004120,27.40005188,0.40004624
'0:21.000',0.41998810,-1.01999178,-0.07004120,27.40005188,0.40102196
'0:21.125',0.40997482,-1.01999178,-0.07004120,27.40005188,0.40102196
'0:21.250',0.41998810,-1.01999178,-0.07004120,27.60010071,0.40102196
'0:21.375',0.40997482,-1.01999178,-0.07004120,27.60010071,0.40004624
'0:21.500',0.40997482,-1.01999178,-0.07004120,27.60010071,0.39907051
'0:21.625',0.40997482,-1.01999178,-0.07004120,27.60010071,0.40102196
'0:21.750',0.41998810,-1.01999178,-0.08003998,27.60010071,0.39907051
'0:21.875',0.40997482,-1.01999178,-0.08003998,27.60010071,0.40102196
'0:22.000',0.41998810,-1.01999178,-0.07004120,27.60010071,0.39507892
'0:22.125',0.41998810,-1.01999178,-0.07004120,27.60010071,0.39800609
'0:22.250',0.41998810,-1.01999178,-0.07004120,27.60010071,0.39907051
'0:22.375',0.40997482,-1.01999178,-0.07004120,27.60010071,0.39507892
'0:22.500',0.40997482,-1.01999178,-0.09003876,27.60010071,0.39507892
'0:22.625',0.40997482,-1.01999178,-0.08003998,27.60010071,0.39507892
'0:22.750',0.40997482,-1.01999178,-0.08003998,27.60010071,0.39507892
'0:22.875',0.40997482,-1.00999471,-0.08003998,27.60010071,0.39507892
'0:23.000',0.40997482,-1.01999178,-0.08003998,27.60010071,0.39507892
'0:23.125',0.41998810,-1.01999178,-0.07004120,27.60010071,0.39507892
'0:23.250',0.40997482,-1.01999178,-0.09003876,27.60010071,0.39507892
'0:23.375',0.42995392,-1.02998885,-0.09003876,27.60010071,0.39507892
'0:23.500',0.40997482,-1.01999178,-0.07004120,27.60010071,0.39507892
'0:23.625',0.41998810,-1.01999178,-0.09003876,27.60010071,0.39401450
'0:23.750',0.40997482,-1.01999178,-0.08003998,27.60010071,0.39507892
'0:23.875',0.40997482,-1.01999178,-0.08003998,27.60010071,0.39507892
'0:24.000',0.40997482,-1.01999178,-0.08003998,27.60010071,0.39507892
'0:24.125',0.40997482,-1.01999178,-0.09003876,27.60010071,0.39507892
'0:24.250',0.41998810,-1.01999178,-0.08003998,27.60010071,0.39507892
'0:24.375',0.40997482,-1.01999178,-0.08003998,27.60010071,0.39401450
'0:24.500',0.40997482,-1.01999178,-0.08003998,27.60010071,0.39507892
'0:24.625',0.40997482,-1.00999471,-0.08003998,27.60010071,0.39401450
'0:24.750',0.40997482,-1.01999178,-0.08003998,27.60010071,0.39507892
'0:24.875',0.41998810,-1.01999178,-0.08003998,27.60010071,0.39507892
'0:25.000',0.40997482,-1.01999178,-0.08003998,27.60010071,0.39507892
'0:25.125',0.41998810,-1.01999178,-0.08003998,27.60010071,0.39401450
'0:25.250',0.40997482,-1.02998885,-0.08003998,27.60010071,0.39303877
'0:25.375',0.40997482,-1.01999178,-0.08003998,27.60010071,0.39507892
'0:25.500',0.40997482,-1.01999178,-0.08003998,27.60010071,0.39303877
'0:25.625',0.41998810,-1.01999178,-0.08003998,27.60010071,0.39303877
'0:25.750',0.41998810,-1.01999178,-0.08003998,27.60010071,0.38904718
'0:25.875',0.40997482,-1.01999178,-0.08003998,27.60010071,0.38904718
'0:26.000',0.40997482,-1.01999178,-0.08003998,27.60010071,0.38904718
'0:26.125',0.40997482,-1.01999178,-0.08003998,27.60010071,0.38904718
'0:26.250',0.40997482,-1.01999178,-0.07004120,27.60010071,0.38904718
'0:26.375',0.41998810,-1.01999178,-0.08003998,27.60010071,0.38904718
'0:26.500',0.41998810,-1.01999178,-0.07004120,27.60010071,0.38904718
'0:26.625',0.39996155,-1.00999471,-0.07004120,27.60010071,0.38904718
'0:26.750',0.41998810,-1.01999178,-0.07004120,27.60010071,0.38904718
'0:26.875',0.40997482,-1.01999178,-0.07004120,27.60010071,0.38904718
'0:27.000',0.41998810,-1.01999178,-0.08003998,27.60010071,0.38904718
'0:27.125',0.41998810,-1.01999178,-0.07004120,27.60010071,0.38904718
'0:27.250',0.41998810,-1.01999178,-0.07004120,27.60010071,0.38904718
'0:27.375',0.41998810,-1.01999178,-0.07004120,27.60010071,0.38904718
'0:27.500',0.40997482,-1.01999178,-0.07004120,27.60010071,0.38904718
'0:27.625',0.40997482,-1.01999178,-0.07004120,27.60010071,0.38904718
'0:27.750',0.40997482,-1.01999178,-0.07004120,27.60010071,0.38904718
'0:27.875',0.41998810,-1.01999178,-0.07004120,27.60010071,0.38904718
'0:28.000',0.41998810,-1.01999178,-0.07004120,27.90005951,0.38904718
'0:28.125',0.41998810,-1.01999178,-0.07004120,27.60010071,0.38904718
'0:28.250',0.41998810,-1.01999178,-0.07004120,27.60010071,0.38904718
'0:28.375',0.40997482,-1.01999178,-0.07004120,27.60010071,0.38904718
'0:28.500',0.40997482,-1.01999178,-0.08003998,27.90005951,0.38904718
'0:28.625',0.41998810,-1.01999178,-0.08003998,27.60010071,0.38904718
'0:28.750',0.41998810,-1.01999178,-0.07004120,27.60010071,0.38904718
'0:28.875',0.40997482,-1.01999178,-0.08003998,27.90005951,0.38904718
'0:29.000',0.41998810,-1.01999178,-0.08003998,27.60010071,0.38904718
'0:29.125',0.40997482,-1.01999178,-0.07004120,27.60010071,0.38603131
'0:29.250',0.40997482,-1.01999178,-0.07004120,27.90005951,0.38904718
'0:29.375',0.41998810,-1.01999178,-0.08003998,27.90005951,0.38904718
'0:29.500',0.41998810,-1.01999178,-0.07004120,27.60010071,0.38807146
'0:29.625',0.40997482,-1.01999178,-0.08003998,27.60010071,0.38904718
'0:29.750',0.40997482,-1.01999178,-0.07004120,27.90005951,0.38603131
'0:29.875',0.41998810,-1.01999178,-0.07004120,27.90005951,0.38603131
'0:30.000',0.40997482,-1.01999178,-0.07004120,27.90005951,0.38603131
'0:30.125',0.40997482,-1.01999178,-0.07004120,27.90005951,0.38603131
'0:30.250',0.40997482,-1.01999178,-0.07004120,27.60010071,0.38904718
'0:30.375',0.41998810,-1.01999178,-0.07004120,27.90005951,0.38603131
'0:30.500',0.40997482,-1.01999178,-0.07004120,27.90005951,0.38603131
'0:30.625',0.41998810,-1.01999178,-0.07004120,27.90005951,0.38603131
'0:30.750',0.40997482,-1.01999178,-0.07004120,27.90005951,0.38603131
'0:30.875',0.40997482,-1.01999178,-0.07004120,27.90005951,0.38603131
'0:31.000',0.41998810,-1.01999178,-0.07004120,27.90005951,0.38603131
'0:31.125',0.40997482,-1.01999178,-0.07004120,27.60010071,0.38301544
'0:31.250',0.40997482,-1.01999178,-0.07004120,27.60010071,0.38603131
'0:31.375',0.41998810,-1.01999178,-0.07004120,27.90005951,0.38301544
'0:31.500',0.39996155,-1.01999178,-0.07004120,27.90005951,0.38301544
'0:31.625',0.40997482,-1.01999178,-0.07004120,27.90005951,0.38203972
'0:31.750',0.40997482,-1.01999178,-0.07004120,27.90005951,0.38301544
'0:31.875',0.40997482,-1.01999178,-0.07004120,27.90005951,0.38603131
'0:32.000',0.40997482,-1.01999178,-0.07004120,27.90005951,0.38203972
'0:32.125',0.40997482,-1.01999178,-0.07004120,27.90005951,0.38301544
'0:32.250',0.40997482,-1.01999178,-0.07004120,27.90005951,0.38301544
'0:32.375',0.40997482,-1.01999178,-0.07004120,27.90005951,0.38301544
'0:32.500',0.40997482,-1.01999178,-0.07004120,27.90005951,0.38301544
'0:32.625',0.40997482,-1.01999178,-0.06004242,27.90005951,0.38301544
'0:32.750',0.40997482,-1.01999178,-0.07004120,27.90005951,0.38301544
'0:32.875',0.40997482,-1.01999178,-0.07004120,27.90005951,0.38301544
'0:33.000',0.41998810,-1.01999178,-0.07004120,27.90005951,0.38203972
'0:33.125',0.40997482,-1.01999178,-0.07004120,27.90005951,0.38301544
'0:33.250',0.40997482,-1.01999178,-0.07004120,27.90005951,0.38301544
'0:33.375',0.41998810,-1.01999178,-0.07004120,27.90005951,0.38301544
'0:33.500',0.40997482,-1.01999178,-0.07004120,27.90005951,0.38301544
'0:33.625',0.41998810,-1.01999178,-0.07004120,27.90005951,0.38301544
'0:33.750',0.40997482,-1.01999178,-0.07004120,27.90005951,0.38301544
'0:33.875',0.40997482,-1.01999178,-0.07004120,27.90005951,0.38301544
'0:34.000',0.40997482,-1.01999178,-0.07004120,27.90005951,0.38301544
'0:34.125',0.40997482,-1.01999178,-0.07004120,27.90005951,0.38301544
'0:34.250',0.41998810,-1.01999178,-0.07004120,27.90005951,0.38301544
'0:34.375',0.40997482,-1.01999178,-0.07004120,27.90005951,0.38301544
'0:34.500',0.40997482,-1.01999178,-0.07004120,27.90005951,0.38301544
'0:34.625',0.40997482,-1.01999178,-0.07004120,27.90005951,0.38008827
'0:34.750',0.40997482,-1.01999178,-0.06004242,27.90005951,0.38203972
'0:34.875',0.40997482,-1.01999178,-0.07004120,27.90005951,0.38203972
'0:35.000',0.40997482,-1.01999178,-0.07004120,27.90005951,0.38301544
'0:35.125',0.40997482,-1.02998885,-0.07004120,27.90005951,0.38301544
'0:35.250',0.40997482,-1.02998885,-0.07004120,27.90005951,0.38106400
'0:35.375',0.40997482,-1.01999178,-0.06004242,27.90005951,0.38301544
'0:35.500',0.39996155,-1.01999178,-0.07004120,27.90005951,0.38106400
'0:35.625',0.40997482,-1.01999178,-0.07004120,28.10010834,0.38301544
'0:35.750',0.40997482,-1.01999178,-0.06004242,27.90005951,0.38008827
'0:35.875',0.40997482,-1.02998885,-0.07004120,27.90005951,0.38008827
'0:36.000',0.40997482,-1.01999178,-0.07004120,28.10010834,0.37804813
'0:36.125',0.41998810,-1.01999178,-0.07004120,27.90005951,0.37804813
'0:36.250',0.40997482,-1.01999178,-0.07004120,27.90005951,0.37804813
'0:36.375',0.40997482,-1.01999178,-0.07004120,27.90005951,0.37804813
'0:36.500',0.40997482,-1.02998885,-0.07004120,28.10010834,0.37804813
'0:36.625',0.40997482,-1.01999178,-0.07004120,28.10010834,0.37804813
'0:36.750',0.40997482,-1.01999178,-0.07004120,27.90005951,0.37804813
'0:36.875',0.40997482,-1.01999178,-0.07004120,28.10010834,0.37707241
'0:37.000',0.40997482,-1.01999178,-0.07004120,28.10010834,0.37804813
'0:37.125',0.40997482,-1.01999178,-0.07004120,27.90005951,0.37804813
'0:37.250',0.41998810,-1.02998885,-0.08003998,27.90005951,0.37804813
'0:37.375',0.40997482,-1.02998885,-0.07004120,27.90005951,0.38008827
'0:37.500',0.39996155,-1.01999178,-0.07004120,28.10010834,0.37804813
'0:37.625',0.40997482,-1.01999178,-0.07004120,28.10010834,0.37804813
'0:37.750',0.40997482,-1.01999178,-0.07004120,28.10010834,0.37804813
'0:37.875',0.40997482,-1.01999178,-0.07004120,28.10010834,0.37804813
'0:38.000',0.40997482,-1.01999178,-0.07004120,27.90005951,0.37804813
'0:38.125',0.39996155,-1.01999178,-0.07004120,27.90005951,0.37804813
'0:38.250',0.40997482,-1.01999178,-0.07004120,27.90005951,0.37804813
'0:38.375',0.40997482,-1.01999178,-0.07004120,28.10010834,0.37804813
'0:38.500',0.40997482,-1.01999178,-0.07004120,28.10010834,0.37804813
'0:38.625',0.40997482,-1.02998885,-0.07004120,28.10010834,0.37804813
'0:38.750',0.40997482,-1.01999178,-0.07004120,28.10010834,0.37804813
'0:38.875',0.40997482,-1.01999178,-0.07004120,28.10010834,0.37804813
'0:39.000',0.40997482,-1.01999178,-0.07004120,27.90005951,0.37804813
'0:39.125',0.40997482,-1.01999178,-0.08003998,28.10010834,0.37707241
'0:39.250',0.40997482,-1.01999178,-0.07004120,28.10010834,0.37804813
'0:39.375',0.40997482,-1.01999178,-0.07004120,28.10010834,0.37804813
'0:39.500',0.40997482,-1.01999178,-0.07004120,28.10010834,0.37804813
'0:39.625',0.40997482,-1.01999178,-0.07004120,28.10010834,0.37804813
'0:39.750',0.40997482,-1.01999178,-0.07004120,28.10010834,0.37804813
'0:39.875',0.40997482,-1.01999178,-0.07004120,28.10010834,0.37804813
'0:40.000',0.41998810,-1.01999178,-0.07004120,28.10010834,0.37804813
'0:40.125',0.40997482,-1.01999178,-0.07004120,28.10010834,0.37804813
'0:40.250',0.39996155,-1.01999178,-0.07004120,28.10010834,0.37804813
'0:40.375',0.40997482,-1.01999178,-0.07004120,28.10010834,0.37804813
'0:40.500',0.40997482,-1.01999178,-0.07004120,28.10010834,0.37804813
'0:40.625',0.39996155,-1.01999178,-0.07004120,28.10010834,0.37804813
'0:40.750',0.40997482,-1.02998885,-0.07004120,28.10010834,0.37804813
'0:40.875',0.40997482,-1.01999178,-0.07004120,28.10010834,0.37804813
'0:41.000',0.40997482,-1.02998885,-0.07004120,28.10010834,0.37707241
'0:41.125',0.40997482,-1.01999178,-0.07004120,28.10010834,0.37804813
'0:41.250',0.40997482,-1.01999178,-0.07004120,28.10010834,0.37804813
'0:41.375',0.40997482,-1.01999178,-0.07004120,28.10010834,0.37804813
'0:41.500',0.40997482,-1.01999178,-0.06004242,28.10010834,0.37707241
'0:41.625',0.40997482,-1.01999178,-0.07004120,28.10010834,0.37804813
'0:41.750',0.40997482,-1.01999178,-0.07004120,28.10010834,0.37804813
'0:41.875',0.40997482,-1.01999178,-0.07004120,28.10010834,0.37707241
'0:42.000',0.40997482,-1.01999178,-0.07004120,28.10010834,0.37804813
'0:42.125',0.39996155,-1.01999178,-0.07004120,28.10010834,0.37804813
'0:42.250',0.40997482,-1.01999178,-0.07004120,28.10010834,0.37503226
'0:42.375',0.40997482,-1.01999178,-0.07004120,28.10010834,0.37405654
'0:42.500',0.39996155,-1.01999178,-0.07004120,28.10010834,0.37804813
'0:42.625',0.40997482,-1.01999178,-0.06004242,28.10010834,0.37804813
'0:42.750',0.40997482,-1.01999178,-0.07004120,28.10010834,0.37804813
'0:42.875',0.40997482,-1.02998885,-0.07004120,28.10010834,0.37503226
'0:43.000',0.40997482,-1.02998885,-0.07004120,28.10010834,0.37707241
'0:43.125',0.40997482,-1.01999178,-0.07004120,28.10010834,0.37804813
'0:43.250',0.40997482,-1.01999178,-0.07004120,28.10010834,0.37405654
'0:43.375',0.39996155,-1.01999178,-0.07004120,28.10010834,0.37804813
'0:43.500',0.39996155,-1.01999178,-0.07004120,28.30004273,0.37804813
'0:43.625',0.40997482,-1.01999178,-0.07004120,28.10010834,0.37201639
'0:43.750',0.40997482,-1.01999178,-0.06004242,28.30004273,0.37503226
'0:43.875',0.40997482,-1.01999178,-0.07004120,28.10010834,0.37503226
'0:44.000',0.40997482,-1.01999178,-0.07004120,28.10010834,0.37201639
'0:44.125',0.40997482,-1.01999178,-0.07004120,28.10010834,0.37804813
'0:44.250',0.40997482,-1.01999178,-0.07004120,28.10010834,0.37503226
'0:44.375',0.40997482,-1.02998885,-0.07004120,28.30004273,0.37201639
'0:44.500',0.40997482,-1.01999178,-0.06004242,28.10010834,0.37804813
'0:44.625',0.40997482,-1.01999178,-0.06004242,28.30004273,0.37201639
'0:44.750',0.40997482,-1.01999178,-0.07004120,28.10010834,0.37804813
'0:44.875',0.40997482,-1.01999178,-0.07004120,28.10010834,0.37201639
'0:45.000',0.40997482,-1.01999178,-0.07004120,28.30004273,0.37503226
'0:45.125',0.40997482,-1.01999178,-0.07004120,28.30004273,0.37503226
'0:45.250',0.39996155,-1.01999178,-0.07004120,28.10010834,0.37503226
'0:45.375',0.39996155,-1.01999178,-0.07004120,28.30004273,0.37503226
'0:45.500',0.40997482,-1.01999178,-0.07004120,28.30004273,0.37503226
'0:45.625',0.40997482,-1.01999178,-0.07004120,28.30004273,0.37201639
'0:45.750',0.39996155,-1.01999178,-0.07004120,28.30004273,0.37201639
'0:45.875',0.40997482,-1.01999178,-0.07004120,28.30004273,0.37503226
'0:46.000',0.40997482,-1.01999178,-0.07004120,28.10010834,0.37503226
'0:46.125',0.40997482,-1.02998885,-0.07004120,28.30004273,0.37201639
'0:46.250',0.39996155,-1.02998885,-0.07004120,28.30004273,0.37201639
'0:46.375',0.40997482,-1.01999178,-0.07004120,28.50009156,0.37503226
'0:46.500',0.40997482,-1.01999178,-0.07004120,28.50009156,0.37201639
'0:46.625',0.39996155,-1.01999178,-0.08003998,28.50009156,0.37405654
'0:46.750',0.39996155,-1.01999178,-0.08003998,28.50009156,0.37405654
'0:46.875',0.39996155,-1.01999178,-0.07004120,28.30004273,0.37405654
'0:47.000',0.40997482,-1.01999178,-0.07004120,28.30004273,0.37201639
'0:47.125',0.40997482,-1.02998885,-0.08003998,28.30004273,0.37201639
'0:47.250',0.39996155,-1.02998885,-0.07004120,28.30004273,0.37503226
'0:47.375',0.39996155,-1.02998885,-0.08003998,28.30004273,0.37201639
'0:47.500',0.40997482,-1.02998885,-0.09003876,28.30004273,0.37405654
'0:47.625',0.39996155,-1.01999178,-0.08003998,28.30004273,0.37201639
'0:47.750',0.39996155,-1.01999178,-0.07004120,28.30004273,0.37503226
'0:47.875',0.39996155,-1.01999178,-0.09003876,28.10010834,0.37405654
'0:48.000',0.40997482,-1.01999178,-0.08003998,28.30004273,0.37503226
'0:48.125',0.40997482,-1.01999178,-0.08003998,28.30004273,0.37503226
'0:48.250',0.40997482,-1.01999178,-0.07004120,28.30004273,0.37405654
'0:48.375',0.40997482,-1.02998885,-0.09003876,28.30004273,0.37201639
'0:48.500',0.39996155,-1.01999178,-0.09003876,28.30004273,0.37503226
'0:48.625',0.40997482,-1.02998885,-0.08003998,28.30004273,0.37201639
'0:48.750',0.40997482,-1.02998885,-0.09003876,28.30004273,0.37201639
'0:48.875',0.39996155,-1.01999178,-0.09003876,28.30004273,0.37201639
'0:49.000',0.39996155,-1.01999178,-0.09003876,28.30004273,0.37201639
'0:49.125',0.39996155,-1.01999178,-0.09003876,28.30004273,0.37201639
'0:49.250',0.40997482,-1.01999178,-0.09003876,28.30004273,0.37201639
'0:49.375',0.40997482,-1.01999178,-0.09003876,28.30004273,0.37503226
'0:49.500',0.40997482,-1.01999178,-0.08003998,28.30004273,0.37201639
'0:49.625',0.40997482,-1.01999178,-0.09003876,28.30004273,0.37503226
'0:49.750',0.39996155,-1.01999178,-0.08003998,28.30004273,0.37201639
'0:49.875',0.40997482,-1.01999178,-0.09003876,28.30004273,0.37503226
'0:50.000',0.40997482,-1.01999178,-0.09003876,28.30004273,0.37104067
'0:50.125',0.39996155,-1.02998885,-0.09003876,28.30004273,0.37201639
'0:50.250',0.40997482,-1.01999178,-0.09003876,28.30004273,0.37804813
'0:50.375',0.40997482,-1.01999178,-0.08003998,28.30004273,0.37201639
'0:50.500',0.39996155,-1.01999178,-0.08003998,28.30004273,0.37201639
'0:50.625',0.39996155,-1.01999178,-0.08003998,28.30004273,0.37104067
'0:50.750',0.39996155,-1.01999178,-0.08003998,28.30004273,0.37405654
'0:50.875',0.40997482,-1.01999178,-0.08003998,28.30004273,0.37503226
'0:51.000',0.39996155,-1.01999178,-0.08003998,28.30004273,0.37201639
'0:51.125',0.40997482,-1.01999178,-0.08003998,28.30004273,0.37405654
'0:51.250',0.40997482,-1.01999178,-0.08003998,28.30004273,0.37201639
'0:51.375',0.41998810,-1.02998885,-0.08003998,28.30004273,0.37503226
'0:51.500',0.39996155,-1.01999178,-0.08003998,28.50009156,0.37201639
'0:51.625',0.41998810,-1.01999178,-0.08003998,28.30004273,0.37503226
'0:51.750',0.40997482,-1.01999178,-0.08003998,28.50009156,0.37503226
'0:51.875',0.40997482,-1.01999178,-0.08003998,28.30004273,0.37405654
'0:52.000',0.40997482,-1.01999178,-0.08003998,28.50009156,0.37201639
'0:52.125',0.40997482,-1.01999178,-0.08003998,28.30004273,0.37201639
'0:52.250',0.40997482,-1.01999178,-0.07004120,28.30004273,0.37201639
'0:52.375',0.40997482,-1.01999178,-0.07004120,28.30004273,0.37503226
'0:52.500',0.40997482,-1.01999178,-0.07004120,28.30004273,0.37503226
'0:52.625',0.40997482,-1.01999178,-0.07004120,28.50009156,0.37503226
'0:52.750',0.41998810,-1.01999178,-0.07004120,28.30004273,0.37201639
'0:52.875',0.40997482,-1.01999178,-0.07004120,28.30004273,0.37201639
'0:53.000',0.40997482,-1.01999178,-0.07004120,28.50009156,0.37503226
'0:53.125',0.40997482,-1.01999178,-0.08003998,28.50009156,0.37201639
'0:53.250',0.40997482,-1.01999178,-0.07004120,28.30004273,0.37201639
'0:53.375',0.40997482,-1.01999178,-0.07004120,28.50009156,0.37503226
'0:53.500',0.39996155,-1.01999178,-0.07004120,28.50009156,0.37503226
'0:53.625',0.40997482,-1.01999178,-0.07004120,28.30004273,0.37503226
'0:53.750',0.40997482,-1.01999178,-0.07004120,28.30004273,0.37503226
'0:53.875',0.40997482,-1.01999178,-0.07004120,28.50009156,0.37201639
'0:54.000',0.40997482,-1.01999178,-0.08003998,28.30004273,0.37201639
'0:54.125',0.40997482,-1.01999178,-0.07004120,28.50009156,0.37405654
'0:54.250',0.41998810,-1.01999178,-0.08003998,28.50009156,0.37503226
'0:54.375',0.40997482,-1.01999178,-0.08003998,28.50009156,0.37201639
'0:54.500',0.40997482,-1.01999178,-0.08003998,28.50009156,0.37503226
'0:54.625',0.40997482,-1.01999178,-0.08003998,28.30004273,0.37503226
'0:54.750',0.40997482,-1.01999178,-0.08003998,28.50009156,0.37201639
'0:54.875',0.40997482,-1.01999178,-0.08003998,28.50009156,0.37201639
'0:55.000',0.41998810,-1.01999178,-0.08003998,28.50009156,0.37503226
'0:55.125',0.40997482,-1.01999178,-0.08003998,28.50009156,0.37201639
'0:55.250',0.41998810,-1.01999178,-0.08003998,28.50009156,0.37405654
'0:55.375',0.40997482,-1.01999178,-0.08003998,28.50009156,0.37503226
'0:55.500',0.40997482,-1.01999178,-0.08003998,28.50009156,0.37503226
'0:55.625',0.40997482,-1.01999178,-0.08003998,28.50009156,0.37503226
'0:55.750',0.40997482,-1.01999178,-0.08003998,28.50009156,0.37405654
'0:55.875',0.40997482,-1.01999178,-0.08003998,28.50009156,0.37503226
'0:56.000',0.40997482,-1.01999178,-0.08003998,28.50009156,0.37503226
'0:56.125',0.41998810,-1.01999178,-0.08003998,28.50009156,0.37804813
'0:56.250',0.40997482,-1.01999178,-0.08003998,28.50009156,0.37201639
'0:56.375',0.40997482,-1.01999178,-0.07004120,28.50009156,0.37503226
'0:56.500',0.40997482,-1.01999178,-0.08003998,28.50009156,0.37201639
'0:56.625',0.41998810,-1.01999178,-0.08003998,28.50009156,0.37804813
'0:56.750',0.41998810,-1.02998885,-0.08003998,28.50009156,0.37503226
'0:56.875',0.40997482,-1.01999178,-0.08003998,28.50009156,0.37405654
'0:57.000',0.40997482,-1.01999178,-0.08003998,28.50009156,0.37201639
'0:57.125',0.41998810,-1.01999178,-0.08003998,28.50009156,0.37503226
'0:57.250',0.40997482,-1.01999178,-0.07004120,28.50009156,0.37201639
'0:57.375',0.40997482,-1.01999178,-0.07004120,28.50009156,0.37503226
'0:57.500',0.41998810,-1.01999178,-0.07004120,28.50009156,0.37201639
'0:57.625',0.41998810,-1.01999178,-0.07004120,28.50009156,0.37405654
'0:57.750',0.41998810,-1.01999178,-0.08003998,28.50009156,0.37503226
'0:57.875',0.40997482,-1.01999178,-0.07004120,28.50009156,0.37503226
'0:58.000',0.40997482,-1.01999178,-0.07004120,28.50009156,0.37804813
'0:58.125',0.40997482,-1.01999178,-0.07004120,28.50009156,0.37804813
'0:58.250',0.40997482,-1.01999178,-0.07004120,28.50009156,0.37503226
'0:58.375',0.40997482,-1.01999178,-0.07004120,28.50009156,0.37804813
'0:58.500',0.40997482,-1.01999178,-0.07004120,28.50009156,0.37405654
'0:58.625',0.40997482,-1.01999178,-0.08003998,28.50009156,0.37201639
'0:58.750',0.40997482,-1.01999178,-0.07004120,28.50009156,0.37804813
'0:58.875',0.40997482,-1.01999178,-0.08003998,28.50009156,0.37201639
'0:59.000',0.40997482,-1.01999178,-0.08003998,28.50009156,0.37707241
'0:59.125',0.40997482,-1.01999178,-0.08003998,28.50009156,0.37804813
'0:59.250',0.40997482,-1.01999178,-0.08003998,28.50009156,0.37405654
'0:59.375',0.40997482,-1.01999178,-0.08003998,28.50009156,0.37804813
'0:59.500',0.41998810,-1.01999178,-0.08003998,28.50009156,0.37503226
'0:59.625',0.40997482,-1.01999178,-0.08003998,28.50009156,0.37503226
'0:59.750',0.40997482,-1.01999178,-0.08003998,28.50009156,0.37503226
'0:59.875',0.40997482,-1.01999178,-0.07004120,28.50009156,0.37201639
'1:00.000',0.40997482,-1.01999178,-0.08003998,28.50009156,0.37201639
'1:00.125',0.40997482,-1.01999178,-0.07004120,28.50009156,0.37503226
'1:00.250',0.40997482,-1.01999178,-0.07004120,28.50009156,0.37804813
'1:00.375',0.40997482,-1.01999178,-0.08003998,28.50009156,0.37804813
'1:00.500',0.40997482,-1.01999178,-0.07004120,28.50009156,0.37503226
'1:00.625',0.40997482,-1.01999178,-0.07004120,28.50009156,0.37804813
'1:00.750',0.40997482,-1.01999178,-0.08003998,28.50009156,0.37804813
'1:00.875',0.40997482,-1.01999178,-0.07004120,28.50009156,0.37707241
'1:01.000',0.41998810,-1.01999178,-0.07004120,28.50009156,0.37804813
'1:01.125',0.40997482,-1.01999178,-0.07004120,28.50009156,0.37405654
'1:01.250',0.40997482,-1.01999178,-0.07004120,28.70002594,0.37804813
'1:01.375',0.40997482,-1.01999178,-0.08003998,28.50009156,0.37405654
'1:01.500',0.40997482,-1.01999178,-0.07004120,28.70002594,0.37804813
'1:01.625',0.40997482,-1.01999178,-0.07004120,28.50009156,0.37405654
'1:01.750',0.40997482,-1.01999178,-0.07004120,28.50009156,0.37503226
'1:01.875',0.40997482,-1.01999178,-0.07004120,28.70002594,0.37804813
'1:02.000',0.40997482,-1.01999178,-0.07004120,28.50009156,0.37405654
'1:02.125',0.41998810,-1.01999178,-0.07004120,28.50009156,0.37804813
'1:02.250',0.40997482,-1.02998885,-0.08003998,28.50009156,0.37503226
'1:02.375',0.40997482,-1.01999178,-0.07004120,28.70002594,0.37804813
'1:02.500',0.40997482,-1.01999178,-0.07004120,28.70002594,0.37804813
'1:02.625',0.40997482,-1.01999178,-0.08003998,28.70002594,0.37804813
'1:02.750',0.40997482,-1.01999178,-0.08003998,28.70002594,0.37503226
'1:02.875',0.40997482,-1.01999178,-0.08003998,28.70002594,0.37804813
'1:03.000',0.40997482,-1.01999178,-0.08003998,28.50009156,0.37804813
'1:03.125',0.40997482,-1.01999178,-0.08003998,28.70002594,0.37405654
'1:03.250',0.40997482,-1.02998885,-0.08003998,28.50009156,0.37804813
'1:03.375',0.41998810,-1.01999178,-0.08003998,28.70002594,0.37503226
'1:03.500',0.40997482,-1.02998885,-0.08003998,28.70002594,0.37804813
'1:03.625',0.40997482,-1.01999178,-0.08003998,28.70002594,0.37503226
'1:03.750',0.40997482,-1.01999178,-0.08003998,28.70002594,0.37804813
'1:03.875',0.39996155,-1.01999178,-0.08003998,28.50009156,0.37804813
'1:04.000',0.40997482,-1.01999178,-0.07004120,28.70002594,0.37503226
'1:04.125',0.40997482,-1.01999178,-0.07004120,28.50009156,0.37804813
'1:04.250',0.39996155,-1.01999178,-0.08003998,28.70002594,0.37804813
'1:04.375',0.40997482,-1.01999178,-0.07004120,28.70002594,0.37804813
'1:04.500',0.41998810,-1.01999178,-0.08003998,28.70002594,0.37804813
'1:04.625',0.42995392,-1.01999178,-0.09003876,28.70002594,0.37804813
'1:04.750',0.41998810,-1.01999178,-0.08003998,28.70002594,0.37804813
'1:04.875',0.42995392,-1.01999178,-0.08003998,28.70002594,0.37804813
'1:05.000',0.43996719,-1.01999178,-0.08003998,28.70002594,0.37804813
'1:05.125',0.41998810,-1.01999178,-0.08003998,28.70002594,0.37804813
'1:05.250',0.41998810,-1.01999178,-0.08003998,28.70002594,0.37804813
'1:05.375',0.42995392,-1.00999471,-0.08003998,28.70002594,0.37804813
'1:05.500',0.42995392,-1.01999178,-0.08003998,28.70002594,0.37804813
'1:05.625',0.41998810,-1.00999471,-0.09003876,28.70002594,0.37804813
'1:05.750',0.42995392,-1.01999178,-0.09003876,28.70002594,0.37804813
'1:05.875',0.42995392,-1.01999178,-0.08003998,28.70002594,0.37804813
'1:06.000',0.42995392,-1.01999178,-0.09003876,28.70002594,0.37804813
'1:06.125',0.42995392,-1.01999178,-0.08003998,28.70002594,0.37804813
'1:06.250',0.42995392,-1.01999178,-0.09003876,28.70002594,0.37804813
'1:06.375',0.42995392,-1.01999178,-0.09003876,28.70002594,0.37707241
'1:06.500',0.42995392,-1.01999178,-0.09003876,28.70002594,0.37707241
'1:06.625',0.41998810,-1.00999471,-0.09003876,28.70002594,0.37707241
'1:06.750',0.42995392,-1.01999178,-0.08003998,28.70002594,0.37804813
'1:06.875',0.41998810,-1.01999178,-0.09003876,28.70002594,0.37804813
'1:07.000',0.42995392,-1.01999178,-0.09003876,28.70002594,0.37804813
'1:07.125',0.42995392,-1.01999178,-0.08003998,28.70002594,0.37804813
'1:07.250',0.42995392,-1.01999178,-0.08003998,28.70002594,0.37804813
'1:07.375',0.42995392,-1.01999178,-0.08003998,28.70002594,0.37804813
'1:07.500',0.42995392,-1.01999178,-0.08003998,28.70002594,0.37804813
'1:07.625',0.42995392,-1.00999471,-0.09003876,28.70002594,0.37804813
'1:07.750',0.42995392,-1.01999178,-0.08003998,28.70002594,0.37804813
'1:07.875',0.42995392,-1.01999178,-0.09003876,28.70002594,0.37804813
'1:08.000',0.42995392,-1.01999178,-0.08003998,28.70002594,0.37804813
'1:08.125',0.42995392,-1.01999178,-0.09003876,28.70002594,0.37804813
'1:08.250',0.42995392,-1.01999178,-0.08003998,28.70002594,0.37804813
'1:08.375',0.42995392,-1.01999178,-0.08003998,28.70002594,0.37804813
'1:08.500',0.41998810,-1.00999471,-0.09003876,28.70002594,0.37804813
'1:08.625',0.41998810,-1.00999471,-0.09003876,28.70002594,0.37804813
'1:08.750',0.41998810,-1.01999178,-0.08003998,28.70002594,0.37804813
'1:08.875',0.42995392,-1.01999178,-0.08003998,28.70002594,0.37804813
'1:09.000',0.41998810,-1.00999471,-0.09003876,28.70002594,0.37804813
'1:09.125',0.42995392,-1.01999178,-0.08003998,28.70002594,0.37804813
'1:09.250',0.42995392,-1.01999178,-0.09003876,28.70002594,0.37804813
'1:09.375',0.42995392,-1.01999178,-0.09003876,28.70002594,0.37804813
'1:09.500',0.42995392,-1.00999471,-0.09003876,28.70002594,0.37804813
'1:09.625',0.41998810,-1.01999178,-0.09003876,28.70002594,0.37804813
'1:09.750',0.42995392,-1.01999178,-0.09003876,28.90007477,0.37804813
'1:09.875',0.42995392,-1.01999178,-0.09003876,28.70002594,0.37804813
'1:10.000',0.42995392,-1.01999178,-0.09003876,28.70002594,0.37804813
'1:10.125',0.42995392,-1.01999178,-0.09003876,28.70002594,0.37804813
'1:10.250',0.43996719,-1.01999178,-0.09003876,28.70002594,0.37804813
'1:10.375',0.42995392,-1.01999178,-0.09003876,28.70002594,0.37804813
'1:10.500',0.42995392,-1.00999471,-0.09003876,28.70002594,0.37804813
'1:10.625',0.42995392,-1.01999178,-0.09003876,28.70002594,0.37804813
'1:10.750',0.42995392,-1.01999178,-0.09003876,28.70002594,0.37804813
'1:10.875',0.42995392,-1.01999178,-0.09003876,28.90007477,0.37804813
'1:11.000',0.42995392,-1.00999471,-0.09003876,28.70002594,0.37804813
'1:11.125',0.42995392,-1.01999178,-0.09003876,28.70002594,0.37804813
'1:11.250',0.42995392,-1.00999471,-0.09003876,28.90007477,0.37804813
'1:11.375',0.42995392,-1.00999471,-0.09003876,28.90007477,0.37804813
'1:11.500',0.42995392,-1.00999471,-0.09003876,28.90007477,0.37804813
'1:11.625',0.42995392,-1.00999471,-0.09003876,28.70002594,0.37804813
'1:11.750',0.41998810,-1.01999178,-0.09003876,28.90007477,0.37804813
'1:11.875',0.42995392,-1.00999471,-0.09003876,28.90007477,0.37804813
'1:12.000',0.42995392,-1.00999471,-0.09003876,28.90007477,0.37804813
'1:12.125',0.42995392,-1.01999178,-0.09003876,28.90007477,0.37804813
'1:12.250',0.41998810,-1.00999471,-0.09003876,28.90007477,0.37804813
'1:12.375',0.41998810,-1.01999178,-0.09003876,28.90007477,0.37804813
'1:12.500',0.42995392,-1.00999471,-0.09003876,28.90007477,0.37804813
'1:12.625',0.42995392,-1.01999178,-0.08003998,28.90007477,0.37804813
'1:12.750',0.42995392,-1.00999471,-0.09003876,28.90007477,0.37804813
'1:12.875',0.42995392,-1.01999178,-0.09003876,28.90007477,0.37804813
'1:13.000',0.41998810,-1.01999178,-0.09003876,28.90007477,0.37804813
'1:13.125',0.42995392,-1.01999178,-0.09003876,28.70002594,0.37804813
'1:13.250',0.42995392,-1.00999471,-0.09003876,28.90007477,0.37804813
'1:13.375',0.42995392,-1.01999178,-0.09003876,28.90007477,0.37804813
'1:13.500',0.42995392,-1.01999178,-0.09003876,28.90007477,0.37804813
'1:13.625',0.42995392,-1.00999471,-0.09003876,28.90007477,0.37804813
'1:13.750',0.43996719,-1.01999178,-0.09003876,28.70002594,0.37804813
'1:13.875',0.42995392,-1.01999178,-0.09003876,28.90007477,0.37804813
'1:14.000',0.42995392,-1.00999471,-0.09003876,28.90007477,0.37804813
'1:14.125',0.42995392,-1.01999178,-0.09003876,28.90007477,0.37804813
'1:14.250',0.42995392,-1.00999471,-0.09003876,28.90007477,0.37804813
'1:14.375',0.42995392,-1.01999178,-0.09003876,28.90007477,0.37804813
'1:14.500',0.42995392,-1.01999178,-0.09003876,28.90007477,0.37804813
'1:14.625',0.41998810,-1.00999471,-0.09003876,28.90007477,0.37804813
'1:14.750',0.42995392,-1.00999471,-0.09003876,28.90007477,0.37804813
'1:14.875',0.42995392,-1.01999178,-0.09003876,28.90007477,0.37804813
'1:15.000',0.41998810,-1.00999471,-0.09003876,28.90007477,0.37804813
'1:15.125',0.42995392,-1.00999471,-0.09003876,28.90007477,0.37804813
'1:15.250',0.41998810,-1.00999471,-0.09003876,28.90007477,0.37804813
'1:15.375',0.42995392,-1.00999471,-0.09003876,28.90007477,0.37804813
'1:15.500',0.42995392,-1.00999471,-0.09003876,28.90007477,0.37804813
'1:15.625',0.42995392,-1.00999471,-0.09003876,28.90007477,0.37804813
'1:15.750',0.42995392,-1.00999471,-0.09003876,28.90007477,0.37804813
'1:15.875',0.41998810,-1.00999471,-0.09003876,28.90007477,0.37804813
'1:16.000',0.42995392,-1.00999471,-0.09003876,28.90007477,0.37804813
'1:16.125',0.42995392,-1.01999178,-0.09003876,28.90007477,0.37804813
'1:16.250',0.41998810,-1.01999178,-0.09003876,28.90007477,0.37804813
'1:16.375',0.42995392,-1.01999178,-0.09003876,28.90007477,0.37804813
'1:16.500',0.41998810,-1.00999471,-0.08003998,28.90007477,0.37804813
'1:16.625',0.41998810,-1.00999471,-0.09003876,28.90007477,0.37707241
'1:16.750',0.42995392,-1.00999471,-0.09003876,28.90007477,0.37804813
'1:16.875',0.41998810,-1.00999471,-0.09003876,28.90007477,0.37804813
'1:17.000',0.42995392,-1.01999178,-0.09003876,28.90007477,0.37804813
'1:17.125',0.42995392,-1.01999178,-0.09003876,28.90007477,0.37804813
'1:17.250',0.41998810,-1.00999471,-0.08003998,28.90007477,0.37804813
'1:17.375',0.42995392,-1.01999178,-0.08003998,28.90007477,0.37804813
'1:17.500',0.42995392,-1.01999178,-0.09003876,28.90007477,0.37804813
'1:17.625',0.42995392,-1.01999178,-0.09003876,28.90007477,0.37804813
'1:17.750',0.42995392,-1.01999178,-0.09003876,28.90007477,0.37804813
'1:17.875',0.41998810,-1.01999178,-0.09003876,28.90007477,0.38008827
'1:18.000',0.41998810,-1.01999178,-0.09003876,28.90007477,0.37804813
'1:18.125',0.42995392,-1.01999178,-0.08003998,28.90007477,0.37804813
'1:18.250',0.42995392,-1.00999471,-0.09003876,28.90007477,0.38008827
'1:18.375',0.41998810,-1.00999471,-0.09003876,28.90007477,0.37804813
'1:18.500',0.41998810,-1.00999471,-0.09003876,28.90007477,0.38008827
'1:18.625',0.41998810,-1.01999178,-0.09003876,28.90007477,0.38008827
'1:18.750',0.41998810,-1.01999178,-0.09003876,28.90007477,0.37804813
'1:18.875',0.42995392,-1.01999178,-0.09003876,28.90007477,0.38008827
'1:19.000',0.41998810,-1.01999178,-0.08003998,28.90007477,0.37804813
'1:19.125',0.41998810,-1.00999471,-0.09003876,28.90007477,0.38008827
'1:19.250',0.42995392,-1.00999471,-0.09003876,29.10000916,0.37804813
'1:19.375',0.42995392,-1.01999178,-0.09003876,28.90007477,0.37804813
'1:19.500',0.42995392,-1.00999471,-0.09003876,28.90007477,0.37804813
'1:19.625',0.41998810,-1.01999178,-0.09003876,28.90007477,0.37804813
'1:19.750',0.42995392,-1.00999471,-0.09003876,29.10000916,0.37804813
'1:19.875',0.42995392,-1.01999178,-0.09003876,29.10000916,0.37804813
'1:20.000',0.42995392,-1.00999471,-0.09003876,28.90007477,0.37804813
'1:20.125',0.42995392,-1.00999471,-0.09003876,28.90007477,0.37804813
'1:20.250',0.42995392,-1.00999471,-0.09003876,28.90007477,0.38008827
'1:20.375',0.42995392,-1.01999178,-0.09003876,28.90007477,0.37804813
'1:20.500',0.42995392,-1.01999178,-0.09003876,28.90007477,0.38301544
'1:20.625',0.42995392,-1.00999471,-0.09003876,29.10000916,0.37804813
'1:20.750',0.42995392,-1.01999178,-0.09003876,29.10000916,0.38008827
'1:20.875',0.42995392,-1.01999178,-0.09003876,29.10000916,0.37804813
'1:21.000',0.42995392,-1.00999471,-0.10003754,29.10000916,0.38008827
'1:21.125',0.42995392,-1.01999178,-0.09003876,29.10000916,0.37804813
'1:21.250',0.42995392,-1.01999178,-0.09003876,29.10000916,0.37804813
'1:21.375',0.41998810,-1.01999178,-0.10003754,29.10000916,0.37804813
'1:21.500',0.42995392,-1.00999471,-0.10003754,29.10000916,0.37804813
'1:21.625',0.42995392,-1.01999178,-0.09003876,29.10000916,0.38301544
'1:21.750',0.42995392,-1.01999178,-0.10003754,29.10000916,0.38106400
'1:21.875',0.43996719,-1.01999178,-0.09003876,28.90007477,0.38008827
'1:22.000',0.41998810,-1.01999178,-0.09003876,29.10000916,0.37804813
'1:22.125',0.41998810,-1.01999178,-0.09003876,29.10000916,0.37707241
'1:22.250',0.41998810,-1.01999178,-0.09003876,29.10000916,0.38008827
'1:22.375',0.41998810,-1.00999471,-0.10003754,29.10000916,0.38008827
'1:22.500',0.42995392,-1.00999471,-0.09003876,29.10000916,0.38008827
'1:22.625',0.42995392,-1.00999471,-0.09003876,29.10000916,0.38301544
'1:22.750',0.41998810,-1.00999471,-0.10003754,29.10000916,0.37804813
'1:22.875',0.42995392,-1.01999178,-0.09003876,29.10000916,0.38301544
'1:23.000',0.42995392,-1.00999471,-0.09003876,29.10000916,0.38008827
'1:23.125',0.42995392,-1.00999471,-0.09003876,29.10000916,0.38106400
'1:23.250',0.42995392,-1.01999178,-0.09003876,29.10000916,0.38301544
'1:23.375',0.41998810,-1.01999178,-0.09003876,29.10000916,0.38106400
'1:23.500',0.42995392,-1.01999178,-0.09003876,29.10000916,0.38301544
'1:23.625',0.42995392,-1.01999178,-0.09003876,29.10000916,0.38301544
'1:23.750',0.41998810,-1.01999178,-0.09003876,29.10000916,0.38008827
'1:23.875',0.42995392,-1.01999178,-0.09003876,29.10000916,0.38008827
'1:24.000',0.42995392,-1.01999178,-0.09003876,29.10000916,0.38301544
'1:24.125',0.42995392,-1.01999178,-0.09003876,29.10000916,0.38301544
'1:24.250',0.42995392,-1.00999471,-0.09003876,29.10000916,0.38301544
'1:24.375',0.41998810,-1.00999471,-0.09003876,29.10000916,0.38008827
'1:24.500',0.41998810,-1.01999178,-0.09003876,29.10000916,0.38301544
'1:24.625',0.42995392,-1.00999471,-0.10003754,29.10000916,0.38301544
'1:24.750',0.42995392,-1.01999178,-0.09003876,29.10000916,0.38301544
'1:24.875',0.42995392,-1.00999471,-0.09003876,29.10000916,0.38301544
'1:25.000',0.42995392,-1.00999471,-0.09003876,29.10000916,0.38301544
'1:25.125',0.42995392,-1.01999178,-0.10003754,29.10000916,0.38301544
'1:25.250',0.41998810,-1.00999471,-0.09003876,29.10000916,0.38301544
'1:25.375',0.42995392,-1.01999178,-0.09003876,29.10000916,0.38301544
'1:25.500',0.41998810,-1.01999178,-0.09003876,29.10000916,0.38301544
'1:25.625',0.41998810,-1.00999471,-0.09003876,29.10000916,0.38301544
'1:25.750',0.42995392,-1.00999471,-0.10003754,29.10000916,0.38301544
'1:25.875',0.42995392,-1.01999178,-0.09003876,29.10000916,0.38301544
'1:26.000',0.42995392,-1.00999471,-0.09003876,29.10000916,0.38301544
'1:26.125',0.42995392,-1.00999471,-0.09003876,29.10000916,0.38301544
'1:26.250',0.41998810,-1.01999178,-0.10003754,29.10000916,0.38301544
'1:26.375',0.41998810,-1.00999471,-0.09003876,29.10000916,0.38203972
'1:26.500',0.42995392,-1.01999178,-0.09003876,29.10000916,0.38301544
'1:26.625',0.42995392,-1.01999178,-0.09003876,29.10000916,0.38301544
'1:26.750',0.42995392,-1.01999178,-0.09003876,29.10000916,0.38301544
'1:26.875',0.41998810,-1.00999471,-0.09003876,29.10000916,0.38301544
'1:27.000',0.42995392,-1.01999178,-0.09003876,29.10000916,0.38301544
'1:27.125',0.41998810,-1.00999471,-0.09003876,29.10000916,0.38301544
'1:27.250',0.41998810,-1.01999178,-0.09003876,29.10000916,0.38301544
'1:27.375',0.42995392,-1.01999178,-0.09003876,29.10000916,0.38301544
'1:27.500',0.42995392,-1.01999178,-0.09003876,29.10000916,0.38301544
'1:27.625',0.41998810,-1.01999178,-0.09003876,29.10000916,0.38301544
'1:27.750',0.42995392,-1.01999178,-0.09003876,29.10000916,0.38301544
'1:27.875',0.42995392,-1.01999178,-0.09003876,29.10000916,0.38301544
'1:28.000',0.42995392,-1.00999471,-0.09003876,29.10000916,0.38301544
'1:28.125',0.42995392,-1.01999178,-0.09003876,29.10000916,0.38301544
'1:28.250',0.41998810,-1.01999178,-0.09003876,29.10000916,0.38301544
'1:28.375',0.42995392,-1.01999178,-0.09003876,29.10000916,0.38301544
'1:28.500',0.42995392,-1.01999178,-0.09003876,29.10000916,0.38603131
'1:28.625',0.41998810,-1.01999178,-0.10003754,29.10000916,0.38301544
'1:28.750',0.42995392,-1.01999178,-0.09003876,29.10000916,0.38301544
'1:28.875',0.42995392,-1.01999178,-0.09003876,29.10000916,0.38301544
'1:29.000',0.42995392,-1.01999178,-0.09003876,29.10000916,0.38203972
'1:29.125',0.42995392,-1.00999471,-0.09003876,29.10000916,0.38301544
'1:29.250',0.41998810,-1.00999471,-0.09003876,29.10000916,0.38301544
'1:29.375',0.41998810,-1.01999178,-0.09003876,29.10000916,0.38301544
'1:29.500',0.42995392,-1.01999178,-0.09003876,29.30005799,0.38301544
'1:29.625',0.42995392,-1.01999178,-0.09003876,29.10000916,0.38301544
'1:29.750',0.42995392,-1.01999178,-0.09003876,29.10000916,0.38301544
'1:29.875',0.42995392,-1.00999471,-0.09003876,29.10000916,0.38603131
'1:30.000',0.41998810,-1.00999471,-0.10003754,29.10000916,0.38603131
'1:30.125',0.42995392,-1.00999471,-0.09003876,29.30005799,0.38301544
'1:30.250',0.42995392,-1.01999178,-0.09003876,29.30005799,0.38603131
'1:30.375',0.41998810,-1.01999178,-0.09003876,29.10000916,0.38301544
'1:30.500',0.42995392,-1.00999471,-0.09003876,29.10000916,0.38301544
'1:30.625',0.41998810,-1.01999178,-0.09003876,29.30005799,0.38603131
'1:30.750',0.41998810,-1.00999471,-0.10003754,29.30005799,0.38603131
'1:30.875',0.41998810,-1.01999178,-0.09003876,29.10000916,0.38603131
'1:31.000',0.41998810,-1.01999178,-0.09003876,29.30005799,0.38603131
'1:31.125',0.42995392,-1.00999471,-0.09003876,29.30005799,0.38301544
'1:31.250',0.41998810,-1.01999178,-0.09003876,29.10000916,0.38603131
'1:31.375',0.41998810,-1.01999178,-0.09003876,29.30005799,0.38603131
'1:31.500',0.41998810,-1.00999471,-0.09003876,29.30005799,0.38603131
'1:31.625',0.42995392,-1.01999178,-0.09003876,29.30005799,0.38603131
'1:31.750',0.42995392,-1.01999178,-0.10003754,29.10000916,0.38603131
'1:31.875',0.42995392,-1.01999178,-0.09003876,29.30005799,0.38904718
'1:32.000',0.42995392,-1.01999178,-0.09003876,29.30005799,0.38603131
'1:32.125',0.41998810,-1.01999178,-0.09003876,29.30005799,0.38603131
'1:32.250',0.41998810,-1.01999178,-0.09003876,29.30005799,0.38505559
'1:32.375',0.42995392,-1.01999178,-0.09003876,29.30005799,0.38603131
'1:32.500',0.41998810,-1.01999178,-0.09003876,29.30005799,0.38603131
'1:32.625',0.41998810,-1.01999178,-0.09003876,29.30005799,0.38603131
'1:32.750',0.41998810,-1.01999178,-0.09003876,29.30005799,0.38603131
'1:32.875',0.41998810,-1.01999178,-0.09003876,29.30005799,0.38904718
'1:33.000',0.42995392,-1.01999178,-0.09003876,29.30005799,0.38904718
'1:33.125',0.41998810,-1.01999178,-0.09003876,29.30005799,0.38904718
'1:33.250',0.41998810,-1.01999178,-0.09003876,29.30005799,0.38603131
'1:33.375',0.42995392,-1.01999178,-0.09003876,29.30005799,0.38904718
'1:33.500',0.41998810,-1.01999178,-0.09003876,29.30005799,0.38603131
'1:33.625',0.41998810,-1.01999178,-0.09003876,29.30005799,0.38904718
'1:33.750',0.42995392,-1.01999178,-0.09003876,29.30005799,0.38904718
'1:33.875',0.42995392,-1.01999178,-0.09003876,29.30005799,0.38904718
'1:34.000',0.41998810,-1.01999178,-0.09003876,29.30005799,0.38904718
'1:34.125',0.41998810,-1.01999178,-0.09003876,29.30005799,0.38603131
'1:34.250',0.41998810,-1.01999178,-0.08003998,29.30005799,0.38904718
'1:34.375',0.41998810,-1.01999178,-0.09003876,29.30005799,0.38603131
'1:34.500',0.41998810,-1.01999178,-0.09003876,29.30005799,0.38904718
'1:34.625',0.41998810,-1.01999178,-0.09003876,29.30005799,0.38603131
'1:34.750',0.42995392,-1.01999178,-0.09003876,29.30005799,0.38904718
'1:34.875',0.42995392,-1.01999178,-0.09003876,29.30005799,0.38603131
'1:35.000',0.41998810,-1.01999178,-0.09003876,29.30005799,0.38904718
'1:35.125',0.41998810,-1.00999471,-0.09003876,29.30005799,0.38603131
'1:35.250',0.42995392,-1.01999178,-0.09003876,29.30005799,0.38904718
'1:35.375',0.41998810,-1.01999178,-0.09003876,29.30005799,0.38904718
'1:35.500',0.41998810,-1.01999178,-0.09003876,29.30005799,0.38904718
'1:35.625',0.41998810,-1.01999178,-0.09003876,29.30005799,0.38904718
'1:35.750',0.42995392,-1.01999178,-0.09003876,29.30005799,0.38904718
'1:35.875',0.42995392,-1.01999178,-0.09003876,29.30005799,0.38904718
'1:36.000',0.41998810,-1.01999178,-0.09003876,29.30005799,0.38904718
'1:36.125',0.42995392,-1.01999178,-0.09003876,29.30005799,0.38904718
'1:36.250',0.41998810,-1.00999471,-0.09003876,29.30005799,0.38904718
'1:36.375',0.42995392,-1.01999178,-0.09003876,29.30005799,0.38603131
'1:36.500',0.41998810,-1.01999178,-0.09003876,29.30005799,0.38904718
'1:36.625',0.42995392,-1.00999471,-0.09003876,29.30005799,0.38904718
'1:36.750',0.42995392,-1.00999471,-0.10003754,29.30005799,0.38904718
'1:36.875',0.41998810,-1.01999178,-0.09003876,29.30005799,0.38904718
'1:37.000',0.41998810,-1.00999471,-0.09003876,29.30005799,0.38904718
'1:37.125',0.41998810,-1.00999471,-0.10003754,29.30005799,0.38904718
'1:37.250',0.42995392,-1.01999178,-0.10003754,29.30005799,0.38904718
'1:37.375',0.42995392,-1.01999178,-0.10003754,29.30005799,0.38904718
'1:37.500',0.41998810,-1.00999471,-0.10003754,29.30005799,0.38904718
'1:37.625',0.42995392,-1.01999178,-0.10003754,29.30005799,0.38904718
'1:37.750',0.42995392,-1.01999178,-0.10003754,29.30005799,0.38904718
'1:37.875',0.41998810,-1.00999471,-0.10003754,29.30005799,0.38904718
'1:38.000',0.42995392,-1.01999178,-0.10003754,29.30005799,0.38807146
'1:38.125',0.43996719,-1.00999471,-0.10003754,29.30005799,0.38904718
'1:38.250',0.42995392,-1.01999178,-0.10003754,29.30005799,0.38904718
'1:38.375',0.41998810,-1.00999471,-0.10003754,29.30005799,0.38904718
'1:38.500',0.42995392,-1.01999178,-0.10003754,29.30005799,0.38904718
'1:38.625',0.41998810,-1.00999471,-0.10003754,29.30005799,0.38904718
'1:38.750',0.42995392,-1.00999471,-0.09003876,29.30005799,0.38904718
'1:38.875',0.42995392,-1.00999471,-0.09003876,29.30005799,0.38904718
'1:39.000',0.42995392,-1.01999178,-0.09003876,29.30005799,0.38904718
'1:39.125',0.42995392,-1.01999178,-0.09003876,29.30005799,0.38904718
'1:39.250',0.42995392,-1.01999178,-0.09003876,29.30005799,0.38904718
'1:39.375',0.41998810,-1.01999178,-0.09003876,29.30005799,0.38904718
'1:39.500',0.41998810,-1.00999471,-0.10003754,29.30005799,0.38904718
'1:39.625',0.42995392,-1.01999178,-0.09003876,29.50010681,0.38904718
'1:39.750',0.41998810,-1.01999178,-0.09003876,29.50010681,0.38904718
'1:39.875',0.42995392,-1.01999178,-0.09003876,29.50010681,0.38904718
'1:40.000',0.42995392,-1.01999178,-0.09003876,29.30005799,0.38904718
'1:40.125',0.42995392,-1.01999178,-0.09003876,29.50010681,0.38904718
'1:40.250',0.41998810,-1.01999178,-0.09003876,29.30005799,0.38904718
'1:40.375',0.41998810,-1.01999178,-0.09003876,29.30005799,0.38904718
'1:40.500',0.41998810,-1.00999471,-0.10003754,29.30005799,0.38904718
'1:40.625',0.41998810,-1.01999178,-0.09003876,29.50010681,0.38904718
'1:40.750',0.42995392,-1.01999178,-0.09003876,29.30005799,0.38904718
'1:40.875',0.41998810,-1.01999178,-0.10003754,29.30005799,0.38904718
'1:41.000',0.42995392,-1.00999471,-0.09003876,29.50010681,0.38904718
'1:41.125',0.41998810,-1.01999178,-0.09003876,29.30005799,0.39303877
'1:41.250',0.42995392,-1.01999178,-0.10003754,29.50010681,0.38904718
'1:41.375',0.42995392,-1.01999178,-0.10003754,29.30005799,0.38904718
'1:41.500',0.42995392,-1.01999178,-0.10003754,29.50010681,0.38904718
'1:41.625',0.42995392,-1.00999471,-0.10003754,29.30005799,0.38904718
'1:41.750',0.41998810,-1.01999178,-0.10003754,29.30005799,0.38904718
'1:41.875',0.41998810,-1.00999471,-0.10003754,29.50010681,0.39303877
'1:42.000',0.42995392,-1.01999178,-0.10003754,29.50010681,0.39303877
'1:42.125',0.42995392,-1.01999178,-0.10003754,29.30005799,0.38904718
'1:42.250',0.42995392,-1.01999178,-0.10003754,29.50010681,0.39507892
'1:42.375',0.42995392,-1.01999178,-0.09003876,29.50010681,0.39303877
'1:42.500',0.41998810,-1.01999178,-0.09003876,29.50010681,0.39303877
'1:42.625',0.41998810,-1.01999178,-0.10003754,29.50010681,0.38904718
'1:42.750',0.42995392,-1.01999178,-0.09003876,29.50010681,0.38904718
'1:42.875',0.42995392,-1.01999178,-0.10003754,29.50010681,0.38904718
'1:43.000',0.42995392,-1.01999178,-0.09003876,29.50010681,0.39303877
'1:43.125',0.41998810,-1.00999471,-0.09003876,29.50010681,0.38904718
'1:43.250',0.41998810,-1.00999471,-0.09003876,29.50010681,0.38904718
'1:43.375',0.41998810,-1.01999178,-0.09003876,29.50010681,0.39507892
'1:43.500',0.42995392,-1.01999178,-0.09003876,29.50010681,0.39303877
'1:43.625',0.41998810,-1.01999178,-0.09003876,29.50010681,0.38904718
'1:43.750',0.41998810,-1.01999178,-0.09003876,29.50010681,0.39507892
'1:43.875',0.41998810,-1.00999471,-0.09003876,29.50010681,0.39507892
'1:44.000',0.42995392,-1.01999178,-0.09003876,29.50010681,0.39206305
'1:44.125',0.41998810,-1.01999178,-0.09003876,29.50010681,0.39507892
'1:44.250',0.41998810,-1.01999178,-0.09003876,29.50010681,0.39507892
'1:44.375',0.41998810,-1.01999178,-0.09003876,29.50010681,0.39206305
'1:44.500',0.41998810,-1.01999178,-0.09003876,29.50010681,0.39507892
'1:44.625',0.41998810,-1.00999471,-0.09003876,29.50010681,0.39507892
'1:44.750',0.41998810,-1.01999178,-0.09003876,29.50010681,0.39507892
'1:44.875',0.41998810,-1.01999178,-0.10003754,29.50010681,0.39303877
'1:45.000',0.42995392,-1.01999178,-0.09003876,29.50010681,0.39507892
'1:45.125',0.41998810,-1.00999471,-0.10003754,29.50010681,0.38904718
'1:45.250',0.42995392,-1.00999471,-0.09003876,29.50010681,0.39507892
'1:45.375',0.42995392,-1.01999178,-0.10003754,29.50010681,0.39507892
'1:45.500',0.41998810,-1.01999178,-0.10003754,29.50010681,0.39507892
'1:45.625',0.42995392,-1.00999471,-0.10003754,29.50010681,0.39507892
'1:45.750',0.42995392,-1.00999471,-0.10003754,29.50010681,0.39507892
'1:45.875',0.41998810,-1.01999178,-0.10003754,29.50010681,0.39507892
'1:46.000',0.42995392,-1.01999178,-0.10003754,29.50010681,0.39507892
'1:46.125',0.42995392,-1.01999178,-0.10003754,29.50010681,0.39507892
'1:46.250',0.42995392,-1.00999471,-0.09003876,29.50010681,0.39507892
'1:46.375',0.42995392,-1.00999471,-0.10003754,29.50010681,0.39800609
'1:46.500',0.41998810,-1.01999178,-0.10003754,29.50010681,0.40102196
'1:46.625',0.42995392,-1.01999178,-0.10003754,29.50010681,0.39800609
'1:46.750',0.42995392,-1.01999178,-0.10003754,29.50010681,0.40102196
'1:46.875',0.42995392,-1.01999178,-0.09003876,29.50010681,0.40102196
'1:47.000',0.41998810,-1.01999178,-0.10003754,29.50010681,0.40102196
'1:47.125',0.42995392,-1.00999471,-0.10003754,29.50010681,0.40102196
'1:47.250',0.42995392,-1.00999471,-0.10003754,29.50010681,0.40102196
'1:47.375',0.42995392,-1.01999178,-0.09003876,29.50010681,0.39800609
'1:47.500',0.42995392,-1.00999471,-0.10003754,29.50010681,0.40102196
'1:47.625',0.42995392,-1.00999471,-0.09003876,29.50010681,0.40102196
'1:47.750',0.42995392,-1.01999178,-0.09003876,29.50010681,0.40102196
'1:47.875',0.41998810,-1.01999178,-0.09003876,29.50010681,0.40306211
'1:48.000',0.42995392,-1.01999178,-0.09003876,29.50010681,0.40705370
'1:48.125',0.42995392,-1.00999471,-0.09003876,29.50010681,0.40705370
'1:48.250',0.41998810,-1.01999178,-0.09003876,29.50010681,0.40705370
'1:48.375',0.41998810,-1.01999178,-0.10003754,29.50010681,0.40705370
'1:48.500',0.41998810,-1.01999178,-0.10003754,29.50010681,0.40705370
'1:48.625',0.42995392,-1.00999471,-0.09003876,29.50010681,0.40705370
'1:48.750',0.42995392,-1.01999178,-0.09003876,29.50010681,0.40705370
'1:48.875',0.41998810,-1.01999178,-0.09003876,29.50010681,0.40705370
'1:49.000',0.42995392,-1.01999178,-0.09003876,29.50010681,0.40705370
'1:49.125',0.41998810,-1.01999178,-0.09003876,29.50010681,0.40705370
'1:49.250',0.41998810,-1.01999178,-0.09003876,29.50010681,0.40705370
'1:49.375',0.42995392,-1.01999178,-0.09003876,29.50010681,0.40705370
'1:49.500',0.41998810,-1.01999178,-0.09003876,29.50010681,0.40705370
'1:49.625',0.42995392,-1.00999471,-0.09003876,29.70004120,0.40705370
'1:49.750',0.41998810,-1.01999178,-0.09003876,29.50010681,0.40705370
'1:49.875',0.41998810,-1.00999471,-0.09003876,29.70004120,0.40705370
'1:50.000',0.42995392,-1.01999178,-0.09003876,29.50010681,0.40705370
'1:50.125',0.42995392,-1.01999178,-0.09003876,29.50010681,0.40705370
'1:50.250',0.42995392,-1.01999178,-0.09003876,29.70004120,0.40705370
'1:50.375',0.41998810,-1.00999471,-0.09003876,29.50010681,0.40705370
'1:50.500',0.42995392,-1.00999471,-0.10003754,29.50010681,0.40705370
'1:50.625',0.41998810,-1.00999471,-0.09003876,29.70004120,0.40705370
'1:50.750',0.41998810,-1.01999178,-0.09003876,29.50010681,0.40306211
'1:50.875',0.42995392,-1.00999471,-0.09003876,29.50010681,0.40705370
'1:51.000',0.41998810,-1.01999178,-0.09003876,29.70004120,0.40705370
'1:51.125',0.41998810,-1.01999178,-0.09003876,29.50010681,0.40705370
'1:51.250',0.41998810,-1.01999178,-0.09003876,29.50010681,0.40705370
'1:51.375',0.41998810,-1.01999178,-0.09003876,29.50010681,0.40705370
'1:51.500',0.41998810,-1.00999471,-0.09003876,29.50010681,0.40705370
'1:51.625',0.41998810,-1.01999178,-0.09003876,29.70004120,0.40705370
'1:51.750',0.42995392,-1.00999471,-0.09003876,29.50010681,0.40705370
'1:51.875',0.41998810,-1.01999178,-0.09003876,29.50010681,0.40705370
'1:52.000',0.41998810,-1.01999178,-0.09003876,29.50010681,0.40306211
'1:52.125',0.41998810,-1.01999178,-0.09003876,29.50010681,0.40705370
'1:52.250',0.41998810,-1.01999178,-0.09003876,29.70004120,0.40705370
'1:52.375',0.41998810,-1.00999471,-0.09003876,29.50010681,0.40705370
'1:52.500',0.41998810,-1.00999471,-0.09003876,29.50010681,0.40705370
'1:52.625',0.41998810,-1.00999471,-0.09003876,29.70004120,0.40705370
'1:52.750',0.42995392,-1.01999178,-0.09003876,29.50010681,0.40705370
'1:52.875',0.41998810,-1.00999471,-0.09003876,29.70004120,0.40306211
'1:53.000',0.41998810,-1.01999178,-0.09003876,29.70004120,0.40705370
'1:53.125',0.41998810,-1.01999178,-0.09003876,29.70004120,0.40705370
'1:53.250',0.41998810,-1.01999178,-0.09003876,29.70004120,0.40705370
'1:53.375',0.41998810,-1.01999178,-0.10003754,29.70004120,0.40705370
'1:53.500',0.41998810,-1.01999178,-0.09003876,29.70004120,0.40705370
'1:53.625',0.41998810,-1.01999178,-0.10003754,29.70004120,0.40306211
'1:53.750',0.41998810,-1.00999471,-0.10003754,29.50010681,0.40705370
'1:53.875',0.42995392,-1.01999178,-0.09003876,29.70004120,0.40705370
'1:54.000',0.42995392,-1.01999178,-0.10003754,29.70004120,0.40705370
'1:54.125',0.42995392,-1.01999178,-0.10003754,29.70004120,0.40705370
'1:54.250',0.41998810,-1.01999178,-0.10003754,29.50010681,0.40705370
'1:54.375',0.41998810,-1.01999178,-0.10003754,29.50010681,0.40705370
'1:54.500',0.41998810,-1.01999178,-0.10003754,29.70004120,0.40705370
'1:54.625',0.42995392,-1.01999178,-0.10003754,29.50010681,0.40705370
'1:54.750',0.41998810,-1.01999178,-0.10003754,29.70004120,0.40705370
'1:54.875',0.41998810,-1.01999178,-0.09003876,29.70004120,0.40705370
'1:55.000',0.42995392,-1.01999178,-0.10003754,29.70004120,0.40705370
'1:55.125',0.42995392,-1.00999471,-0.10003754,29.70004120,0.40705370
'1:55.250',0.41998810,-1.01999178,-0.10003754,29.70004120,0.40705370
'1:55.375',0.41998810,-1.00999471,-0.10003754,29.70004120,0.40705370
'1:55.500',0.41998810,-1.00999471,-0.10003754,29.70004120,0.40705370
'1:55.625',0.42995392,-1.01999178,-0.10003754,29.70004120,0.40705370
'1:55.750',0.42995392,-1.00999471,-0.10003754,29.70004120,0.40705370
'1:55.875',0.42995392,-1.01999178,-0.10003754,29.70004120,0.40705370
'1:56.000',0.42995392,-1.01999178,-0.10003754,29.70004120,0.40705370
'1:56.125',0.42995392,-1.01999178,-0.10003754,29.70004120,0.40705370
'1:56.250',0.41998810,-1.00999471,-0.10003754,29.70004120,0.40705370
'1:56.375',0.41998810,-1.00999471,-0.10003754,29.70004120,0.40705370
'1:56.500',0.42995392,-1.01999178,-0.10003754,29.70004120,0.40705370
'1:56.625',0.42995392,-1.00999471,-0.10003754,29.70004120,0.40705370
'1:56.750',0.42995392,-1.00999471,-0.10003754,29.70004120,0.40705370
'1:56.875',0.42995392,-1.01999178,-0.10003754,29.70004120,0.40705370
'1:57.000',0.42995392,-1.01999178,-0.10003754,29.70004120,0.40705370
'1:57.125',0.42995392,-1.01999178,-0.10003754,29.70004120,0.40705370
'1:57.250',0.41998810,-1.00999471,-0.10003754,29.70004120,0.40705370
'1:57.375',0.41998810,-1.01999178,-0.09003876,29.70004120,0.40705370
'1:57.500',0.42995392,-1.01999178,-0.10003754,29.70004120,0.40705370
'1:57.625',0.42995392,-1.00999471,-0.10003754,29.70004120,0.40705370
'1:57.750',0.41998810,-1.00999471,-0.10003754,29.70004120,0.40705370
'1:57.875',0.41998810,-1.01999178,-0.10003754,29.70004120,0.40705370
'1:58.000',0.42995392,-1.01999178,-0.10003754,29.70004120,0.40705370
'1:58.125',0.41998810,-1.01999178,-0.09003876,29.70004120,0.40705370
'1:58.250',0.42995392,-1.00999471,-0.10003754,29.70004120,0.40705370
'1:58.375',0.42995392,-1.01999178,-0.10003754,29.70004120,0.40705370
'1:58.500',0.41998810,-1.01999178,-0.09003876,29.70004120,0.40705370
'1:58.625',0.42995392,-1.01999178,-0.10003754,29.70004120,0.40705370
'1:58.750',0.42995392,-1.00999471,-0.10003754,29.70004120,0.40705370
'1:58.875',0.41998810,-1.01999178,-0.10003754,29.70004120,0.40705370
'1:59.000',0.42995392,-1.01999178,-0.10003754,29.70004120,0.40705370
'1:59.125',0.41998810,-1.00999471,-0.10003754,29.70004120,0.40705370
'1:59.250',0.41998810,-1.01999178,-0.10003754,29.70004120,0.40705370
'1:59.375',0.41998810,-1.01999178,-0.10003754,29.70004120,0.40705370
'1:59.500',0.42995392,-1.01999178,-0.10003754,30.10002441,0.40705370
'1:59.625',0.41998810,-1.00999471,-0.11003632,29.90009003,0.40705370
'1:59.750',0.42995392,-1.01999178,-0.10003754,29.90009003,0.40705370
'1:59.875',0.39996155,-1.02998885,-0.10003754,29.90009003,0.40306211
'2:00.000',0.41998810,-1.01999178,-0.10003754,29.70004120,0.40705370
'2:00.125',0.42995392,-1.00999471,-0.10003754,29.70004120,0.40705370
'2:00.250',0.42995392,-1.00999471,-0.10003754,29.70004120,0.40705370
'2:00.375',0.41998810,-1.01999178,-0.10003754,29.70004120,0.40705370
'2:00.500',0.41998810,-1.00999471,-0.09003876,29.70004120,0.40705370
'2:00.625',0.41998810,-1.00999471,-0.10003754,29.90009003,0.40705370
'2:00.750',0.41998810,-1.00999471,-0.10003754,29.90009003,0.40705370
'2:00.875',0.42995392,-1.01999178,-0.10003754,29.70004120,0.40705370
'2:01.000',0.41998810,-1.01999178,-0.10003754,29.70004120,0.40705370
'2:01.125',0.41998810,-1.01999178,-0.10003754,29.90009003,0.40705370
'2:01.250',0.42995392,-1.00999471,-0.09003876,29.70004120,0.40705370
'2:01.375',0.41998810,-1.01999178,-0.09003876,29.70004120,0.40705370
'2:01.500',0.42995392,-1.00999471,-0.10003754,29.70004120,0.40705370
'2:01.625',0.41998810,-1.00999471,-0.10003754,29.70004120,0.40705370
'2:01.750',0.41998810,-1.00999471,-0.10003754,29.70004120,0.40705370
'2:01.875',0.41998810,-1.00999471,-0.10003754,29.70004120,0.40705370
'2:02.000',0.41998810,-1.00999471,-0.09003876,29.70004120,0.40705370
'2:02.125',0.41998810,-1.01999178,-0.10003754,29.90009003,0.40705370
'2:02.250',0.41998810,-1.00999471,-0.10003754,29.90009003,0.40705370
'2:02.375',0.42995392,-1.01999178,-0.09003876,29.70004120,0.40705370
'2:02.500',0.41998810,-1.01999178,-0.10003754,29.90009003,0.40705370
'2:02.625',0.41998810,-1.01999178,-0.10003754,29.90009003,0.40705370
'2:02.750',0.41998810,-1.01999178,-0.09003876,29.90009003,0.40705370
'2:02.875',0.42995392,-1.00999471,-0.10003754,29.90009003,0.40705370
'2:03.000',0.41998810,-1.00999471,-0.10003754,29.90009003,0.40705370
'2:03.125',0.41998810,-1.00999471,-0.09003876,29.90009003,0.40705370
'2:03.250',0.42995392,-1.01999178,-0.10003754,29.90009003,0.40705370
'2:03.375',0.42995392,-1.01999178,-0.09003876,29.70004120,0.40705370
'2:03.500',0.41998810,-1.00999471,-0.09003876,29.70004120,0.40705370
'2:03.625',0.41998810,-1.00999471,-0.09003876,29.90009003,0.40705370
'2:03.750',0.41998810,-1.00999471,-0.10003754,29.90009003,0.40705370
'2:03.875',0.41998810,-1.01999178,-0.09003876,29.90009003,0.40705370
'2:04.000',0.41998810,-1.01999178,-0.10003754,29.90009003,0.40705370
'2:04.125',0.42995392,-1.00999471,-0.10003754,29.90009003,0.40705370
'2:04.250',0.42995392,-1.00999471,-0.09003876,29.90009003,0.40705370
'2:04.375',0.41998810,-1.01999178,-0.10003754,29.90009003,0.40705370
'2:04.500',0.41998810,-1.01999178,-0.10003754,29.90009003,0.40705370
'2:04.625',0.41998810,-1.00999471,-0.10003754,29.90009003,0.40705370
'2:04.750',0.41998810,-1.01999178,-0.10003754,29.90009003,0.40705370
'2:04.875',0.41998810,-1.01999178,-0.10003754,29.70004120,0.40705370
'2:05.000',0.41998810,-1.00999471,-0.09003876,29.90009003,0.40705370
'2:05.125',0.41998810,-1.00999471,-0.10003754,29.90009003,0.40705370
'2:05.250',0.41998810,-1.01999178,-0.09003876,29.90009003,0.40705370
'2:05.375',0.41998810,-1.01999178,-0.09003876,29.90009003,0.40705370
'2:05.500',0.41998810,-1.00999471,-0.09003876,29.90009003,0.40705370
'2:05.625',0.42995392,-1.01999178,-0.10003754,29.90009003,0.40705370
'2:05.750',0.42995392,-1.01999178,-0.09003876,29.90009003,0.40705370
'2:05.875',0.41998810,-1.01999178,-0.09003876,29.90009003,0.40705370
'2:06.000',0.41998810,-1.01999178,-0.10003754,29.90009003,0.40705370
'2:06.125',0.41998810,-1.00999471,-0.10003754,29.90009003,0.40705370
'2:06.250',0.41998810,-1.00999471,-0.10003754,29.90009003,0.40705370
'2:06.375',0.42995392,-1.01999178,-0.09003876,29.90009003,0.40705370
'2:06.500',0.41998810,-1.01999178,-0.10003754,29.90009003,0.40705370
'2:06.625',0.41998810,-1.01999178,-0.10003754,29.90009003,0.41006957
'2:06.750',0.42995392,-1.00999471,-0.10003754,29.90009003,0.40705370
'2:06.875',0.41998810,-1.01999178,-0.10003754,29.90009003,0.40705370
'2:07.000',0.41998810,-1.01999178,-0.10003754,29.90009003,0.40705370
'2:07.125',0.41998810,-1.01999178,-0.09003876,29.90009003,0.40705370
'2:07.250',0.41998810,-1.01999178,-0.10003754,29.90009003,0.40705370
'2:07.375',0.41998810,-1.01999178,-0.09003876,29.90009003,0.40705370
'2:07.500',0.42995392,-1.01999178,-0.09003876,29.90009003,0.40900514
'2:07.625',0.41998810,-1.01999178,-0.10003754,29.90009003,0.40705370
'2:07.750',0.42995392,-1.01999178,-0.09003876,29.90009003,0.40705370
'2:07.875',0.41998810,-1.00999471,-0.10003754,29.90009003,0.41308544
'2:08.000',0.41998810,-1.01999178,-0.10003754,29.90009003,0.41308544
'2:08.125',0.41998810,-1.00999471,-0.09003876,29.90009003,0.40705370
'2:08.250',0.41998810,-1.01999178,-0.10003754,29.90009003,0.40900514
'2:08.375',0.42995392,-1.00999471,-0.10003754,29.90009003,0.40705370
'2:08.500',0.41998810,-1.00999471,-0.10003754,29.90009003,0.41006957
'2:08.625',0.41998810,-1.01999178,-0.09003876,29.90009003,0.41006957
'2:08.750',0.41998810,-1.00999471,-0.10003754,29.90009003,0.40705370
'2:08.875',0.41998810,-1.00999471,-0.10003754,29.90009003,0.40705370
'2:09.000',0.41998810,-1.01999178,-0.10003754,29.90009003,0.41006957
'2:09.125',0.41998810,-1.00999471,-0.10003754,29.90009003,0.41308544
'2:09.250',0.41998810,-1.00999471,-0.10003754,29.90009003,0.41006957
'2:09.375',0.41998810,-1.00999471,-0.10003754,29.90009003,0.41308544
'2:09.500',0.41998810,-1.01999178,-0.10003754,29.90009003,0.41006957
'2:09.625',0.41998810,-1.00999471,-0.10003754,29.90009003,0.41006957
'2:09.750',0.41998810,-1.01999178,-0.10003754,29.90009003,0.40705370
'2:09.875',0.41998810,-1.01999178,-0.10003754,29.90009003,0.41006957
'2:10.000',0.42995392,-1.00999471,-0.10003754,29.90009003,0.40900514
'2:10.125',0.41998810,-1.00999471,-0.10003754,29.90009003,0.40705370
'2:10.250',0.41998810,-1.00999471,-0.10003754,29.90009003,0.40705370
'2:10.375',0.41998810,-1.01999178,-0.10003754,29.90009003,0.40705370
'2:10.500',0.41998810,-1.01999178,-0.10003754,29.90009003,0.41308544
'2:10.625',0.41998810,-1.00999471,-0.10003754,29.90009003,0.41308544
'2:10.750',0.41998810,-1.00999471,-0.10003754,29.90009003,0.40900514
'2:10.875',0.41998810,-1.00999471,-0.10003754,29.90009003,0.40705370
'2:11.000',0.41998810,-1.01999178,-0.10003754,29.90009003,0.41308544
'2:11.125',0.41998810,-1.01999178,-0.10003754,29.90009003,0.40705370
'2:11.250',0.42995392,-1.00999471,-0.10003754,29.90009003,0.40900514
'2:11.375',0.41998810,-1.01999178,-0.10003754,29.90009003,0.41308544
'2:11.500',0.41998810,-1.00999471,-0.10003754,30.10002441,0.41308544
'2:11.625',0.41998810,-1.01999178,-0.10003754,29.90009003,0.41308544
'2:11.750',0.41998810,-1.01999178,-0.10003754,29.90009003,0.41006957
'2:11.875',0.41998810,-1.01999178,-0.10003754,29.90009003,0.41308544
'2:12.000',0.41998810,-1.00999471,-0.10003754,29.90009003,0.40705370
'2:12.125',0.41998810,-1.00999471,-0.10003754,29.90009003,0.40900514
'2:12.250',0.41998810,-1.01999178,-0.10003754,29.90009003,0.40900514
'2:12.375',0.41998810,-1.00999471,-0.09003876,29.90009003,0.41006957
'2:12.500',0.41998810,-1.00999471,-0.09003876,29.90009003,0.41308544
'2:12.625',0.41998810,-1.01999178,-0.10003754,29.90009003,0.41308544
'2:12.750',0.41998810,-1.01999178,-0.09003876,29.90009003,0.41308544
'2:12.875',0.41998810,-1.01999178,-0.09003876,29.90009003,0.41308544
'2:13.000',0.41998810,-1.01999178,-0.10003754,29.90009003,0.41308544
'2:13.125',0.41998810,-1.00999471,-0.09003876,29.90009003,0.41308544
'2:13.250',0.42995392,-1.01999178,-0.10003754,30.10002441,0.41308544
'2:13.375',0.42995392,-1.00999471,-0.10003754,30.10002441,0.41308544
'2:13.500',0.41998810,-1.00999471,-0.10003754,29.90009003,0.41308544
'2:13.625',0.41998810,-1.01999178,-0.10003754,29.90009003,0.41308544
'2:13.750',0.41998810,-1.00999471,-0.10003754,29.90009003,0.41308544
'2:13.875',0.41998810,-1.01999178,-0.10003754,29.90009003,0.41308544
'2:14.000',0.42995392,-1.01999178,-0.10003754,29.90009003,0.41308544
'2:14.125',0.42995392,-1.00999471,-0.10003754,30.10002441,0.41308544
'2:14.250',0.42995392,-1.00999471,-0.10003754,29.90009003,0.41308544
'2:14.375',0.41998810,-1.00999471,-0.10003754,30.10002441,0.41308544
'2:14.500',0.41998810,-1.00999471,-0.10003754,30.10002441,0.41308544
'2:14.625',0.41998810,-1.00999471,-0.10003754,30.10002441,0.41308544
'2:14.750',0.42995392,-1.01999178,-0.10003754,30.10002441,0.41308544
'2:14.875',0.41998810,-1.01999178,-0.10003754,30.10002441,0.41308544
'2:15.000',0.42995392,-1.00999471,-0.10003754,30.10002441,0.41308544
'2:15.125',0.41998810,-1.01999178,-0.10003754,30.10002441,0.41308544
'2:15.250',0.41998810,-1.00999471,-0.10003754,30.10002441,0.41308544
'2:15.375',0.41998810,-1.01999178,-0.10003754,30.10002441,0.41308544
'2:15.500',0.41998810,-1.00999471,-0.10003754,29.90009003,0.41308544
'2:15.625',0.42995392,-1.01999178,-0.09003876,30.10002441,0.41308544
'2:15.750',0.42995392,-1.00999471,-0.10003754,30.10002441,0.41308544
'2:15.875',0.42995392,-1.00999471,-0.10003754,30.10002441,0.41308544
'2:16.000',0.41998810,-1.00999471,-0.10003754,30.10002441,0.41308544
'2:16.125',0.41998810,-1.01999178,-0.09003876,30.10002441,0.41308544
'2:16.250',0.41998810,-1.01999178,-0.10003754,30.10002441,0.41308544
'2:16.375',0.42995392,-1.01999178,-0.10003754,30.10002441,0.41308544
'2:16.500',0.41998810,-1.01999178,-0.10003754,30.10002441,0.41308544
'2:16.625',0.41998810,-1.00999471,-0.09003876,30.10002441,0.41308544
'2:16.750',0.41998810,-1.01999178,-0.10003754,30.10002441,0.41308544
'2:16.875',0.41998810,-1.01999178,-0.09003876,30.10002441,0.41308544
'2:17.000',0.41998810,-1.00999471,-0.10003754,30.10002441,0.41308544
'2:17.125',0.41998810,-1.01999178,-0.10003754,30.10002441,0.41308544
'2:17.250',0.42995392,-1.00999471,-0.10003754,30.10002441,0.41308544
'2:17.375',0.42995392,-1.01999178,-0.10003754,30.10002441,0.41308544
'2:17.500',0.41998810,-1.01999178,-0.10003754,30.10002441,0.41308544
'2:17.625',0.42995392,-1.00999471,-0.10003754,30.10002441,0.41308544
'2:17.750',0.41998810,-1.00999471,-0.10003754,30.10002441,0.41308544
'2:17.875',0.41998810,-1.00999471,-0.10003754,30.10002441,0.41308544
'2:18.000',0.41998810,-1.00999471,-0.10003754,30.10002441,0.41308544
'2:18.125',0.42995392,-1.01999178,-0.10003754,30.10002441,0.41308544
'2:18.250',0.41998810,-1.01999178,-0.10003754,30.10002441,0.41308544
'2:18.375',0.41998810,-1.01999178,-0.10003754,30.10002441,0.41308544
'2:18.500',0.41998810,-1.01999178,-0.10003754,30.10002441,0.41308544
'2:18.625',0.41998810,-1.00999471,-0.10003754,30.10002441,0.41308544
'2:18.750',0.41998810,-1.00999471,-0.10003754,30.10002441,0.41308544
'2:18.875',0.41998810,-1.00999471,-0.10003754,30.10002441,0.41308544
'2:19.000',0.41998810,-1.00999471,-0.10003754,30.10002441,0.41308544
'2:19.125',0.41998810,-1.01999178,-0.10003754,30.10002441,0.41308544
'2:19.250',0.41998810,-1.01999178,-0.09003876,30.10002441,0.41308544
'2:19.375',0.41998810,-1.00999471,-0.10003754,30.10002441,0.41308544
'2:19.500',0.42995392,-1.01999178,-0.09003876,30.10002441,0.41308544
'2:19.625',0.42995392,-1.01999178,-0.09003876,30.10002441,0.41308544
'2:19.750',0.41998810,-1.01999178,-0.09003876,30.10002441,0.41308544
'2:19.875',0.41998810,-1.01999178,-0.10003754,30.10002441,0.41308544
'2:20.000',0.41998810,-1.00999471,-0.09003876,30.10002441,0.41308544
'2:20.125',0.41998810,-1.00999471,-0.10003754,30.10002441,0.41308544
'2:20.250',0.41998810,-1.01999178,-0.09003876,30.10002441,0.41308544
'2:20.375',0.41998810,-1.01999178,-0.10003754,30.10002441,0.41308544
'2:20.500',0.42995392,-1.01999178,-0.10003754,30.10002441,0.41308544
'2:20.625',0.41998810,-1.01999178,-0.09003876,30.10002441,0.41308544
'2:20.750',0.41998810,-1.01999178,-0.09003876,30.10002441,0.41503688
'2:20.875',0.42995392,-1.00999471,-0.10003754,30.10002441,0.41503688
'2:21.000',0.41998810,-1.01999178,-0.09003876,30.10002441,0.41308544
'2:21.125',0.41998810,-1.01999178,-0.10003754,30.10002441,0.41308544
'2:21.250',0.42995392,-1.01999178,-0.10003754,30.10002441,0.41308544
'2:21.375',0.42995392,-1.00999471,-0.10003754,30.10002441,0.41308544
'2:21.500',0.42995392,-1.00999471,-0.10003754,30.10002441,0.41503688
'2:21.625',0.41998810,-1.01999178,-0.10003754,30.10002441,0.41308544
'2:21.750',0.41998810,-1.00999471,-0.10003754,30.10002441,0.41601260
'2:21.875',0.42995392,-1.00999471,-0.10003754,30.10002441,0.41308544
'2:22.000',0.42995392,-1.00999471,-0.10003754,30.10002441,0.41308544
'2:22.125',0.41998810,-1.01999178,-0.10003754,30.10002441,0.41503688
'2:22.250',0.41998810,-1.01999178,-0.10003754,30.10002441,0.41308544
'2:22.375',0.41998810,-1.01999178,-0.10003754,30.10002441,0.41308544
'2:22.500',0.42995392,-1.00999471,-0.10003754,30.10002441,0.41308544
'2:22.625',0.41998810,-1.01999178,-0.10003754,30.10002441,0.41503688
'2:22.750',0.41998810,-1.00999471,-0.10003754,30.10002441,0.41503688
'2:22.875',0.41998810,-1.01999178,-0.09003876,30.10002441,0.41503688
'2:23.000',0.41998810,-1.00999471,-0.10003754,30.10002441,0.41902847
'2:23.125',0.41998810,-1.01999178,-0.09003876,30.10002441,0.41503688
'2:23.250',0.41998810,-1.00999471,-0.10003754,30.10002441,0.41308544
'2:23.375',0.41998810,-1.01999178,-0.10003754,30.10002441,0.41503688
'2:23.500',0.41998810,-1.01999178,-0.10003754,30.10002441,0.41503688
'2:23.625',0.41998810,-1.01999178,-0.10003754,30.10002441,0.41308544
'2:23.750',0.41998810,-1.01999178,-0.10003754,30.10002441,0.41503688
'2:23.875',0.42995392,-1.00999471,-0.09003876,30.10002441,0.41902847
'2:24.000',0.41998810,-1.00999471,-0.09003876,30.40009766,0.41308544
'2:24.125',0.41998810,-1.01999178,-0.09003876,30.10002441,0.41503688
'2:24.250',0.41998810,-1.01999178,-0.09003876,30.10002441,0.41902847
'2:24.375',0.41998810,-1.01999178,-0.09003876,30.40009766,0.41503688
'2:24.500',0.41998810,-1.00999471,-0.10003754,30.10002441,0.41902847
'2:24.625',0.41998810,-1.00999471,-0.10003754,30.10002441,0.41902847
'2:24.750',0.41998810,-1.00999471,-0.10003754,30.10002441,0.41503688
'2:24.875',0.41998810,-1.01999178,-0.10003754,30.10002441,0.41902847
'2:25.000',0.41998810,-1.00999471,-0.10003754,30.40009766,0.41902847
'2:25.125',0.41998810,-1.00999471,-0.10003754,30.10002441,0.41503688
'2:25.250',0.41998810,-1.01999178,-0.10003754,30.10002441,0.41503688
'2:25.375',0.41998810,-1.00999471,-0.10003754,30.10002441,0.41503688
'2:25.500',0.41998810,-1.01999178,-0.10003754,30.10002441,0.41503688
'2:25.625',0.42995392,-1.01999178,-0.10003754,30.10002441,0.41902847
'2:25.750',0.41998810,-1.01999178,-0.10003754,30.10002441,0.41902847
'2:25.875',0.41998810,-1.01999178,-0.10003754,30.10002441,0.41902847
'2:26.000',0.42995392,-1.01999178,-0.10003754,30.40009766,0.41503688
'2:26.125',0.41998810,-1.00999471,-0.10003754,30.40009766,0.41503688
'2:26.250',0.41998810,-1.00999471,-0.10003754,30.40009766,0.41902847
'2:26.375',0.41998810,-1.01999178,-0.10003754,30.10002441,0.41503688
'2:26.500',0.41998810,-1.00999471,-0.10003754,30.10002441,0.41503688
'2:26.625',0.41998810,-1.01999178,-0.10003754,30.10002441,0.41902847
'2:26.750',0.41998810,-1.00999471,-0.10003754,30.10002441,0.41503688
'2:26.875',0.41998810,-1.01999178,-0.09003876,30.10002441,0.41902847
'2:27.000',0.41998810,-1.00999471,-0.10003754,30.10002441,0.41503688
'2:27.125',0.41998810,-1.01999178,-0.10003754,30.40009766,0.41503688
'2:27.250',0.41998810,-1.00999471,-0.10003754,30.40009766,0.41902847
'2:27.375',0.41998810,-1.01999178,-0.10003754,30.40009766,0.41902847
'2:27.500',0.41998810,-1.01999178,-0.10003754,30.40009766,0.41902847
'2:27.625',0.41998810,-1.01999178,-0.10003754,30.10002441,0.41902847
'2:27.750',0.41998810,-1.00999471,-0.10003754,30.40009766,0.41902847
'2:27.875',0.41998810,-1.01999178,-0.09003876,30.40009766,0.41503688
'2:28.000',0.41998810,-1.00999471,-0.09003876,30.40009766,0.41902847
'2:28.125',0.42995392,-1.01999178,-0.10003754,30.40009766,0.41902847
'2:28.250',0.41998810,-1.00999471,-0.10003754,30.40009766,0.41902847
'2:28.375',0.41998810,-1.01999178,-0.10003754,30.10002441,0.41902847
'2:28.500',0.41998810,-1.00999471,-0.09003876,30.40009766,0.41503688
'2:28.625',0.41998810,-1.01999178,-0.09003876,30.40009766,0.41503688
'2:28.750',0.40997482,-1.01999178,-0.09003876,30.40009766,0.41503688
'2:28.875',0.41998810,-1.00999471,-0.10003754,30.40009766,0.41902847
'2:29.000',0.42995392,-1.01999178,-0.10003754,30.40009766,0.41902847
'2:29.125',0.42995392,-1.01999178,-0.10003754,30.40009766,0.41503688
'2:29.250',0.42995392,-1.01999178,-0.09003876,30.40009766,0.41902847
'2:29.375',0.41998810,-1.01999178,-0.10003754,30.40009766,0.41902847
'2:29.500',0.41998810,-1.00999471,-0.10003754,30.40009766,0.41902847
'2:29.625',0.41998810,-1.01999178,-0.09003876,30.40009766,0.41503688
'2:29.750',0.41998810,-1.00999471,-0.09003876,30.40009766,0.41902847
'2:29.875',0.41998810,-1.01999178,-0.09003876,30.40009766,0.41902847
'2:30.000',0.41998810,-1.01999178,-0.09003876,30.40009766,0.41902847
'2:30.125',0.41998810,-1.01999178,-0.09003876,30.40009766,0.41902847
'2:30.250',0.41998810,-1.01999178,-0.09003876,30.40009766,0.41902847
'2:30.375',0.41998810,-1.01999178,-0.09003876,30.40009766,0.41902847
'2:30.500',0.41998810,-1.00999471,-0.10003754,30.40009766,0.41902847
'2:30.625',0.41998810,-1.01999178,-0.09003876,30.40009766,0.41902847
'2:30.750',0.42995392,-1.00999471,-0.09003876,30.40009766,0.41902847
'2:30.875',0.41998810,-1.01999178,-0.09003876,30.40009766,0.41902847
'2:31.000',0.41998810,-1.01999178,-0.09003876,30.40009766,0.41902847
'2:31.125',0.41998810,-1.01999178,-0.10003754,30.40009766,0.41902847
'2:31.250',0.42995392,-1.01999178,-0.09003876,30.40009766,0.41503688
'2:31.375',0.41998810,-1.01999178,-0.09003876,30.40009766,0.41902847
'2:31.500',0.41998810,-1.01999178,-0.10003754,30.40009766,0.41503688
'2:31.625',0.41998810,-1.00999471,-0.09003876,30.40009766,0.41805275
'2:31.750',0.41998810,-1.00999471,-0.09003876,30.40009766,0.41902847
'2:31.875',0.41998810,-1.01999178,-0.09003876,30.40009766,0.41902847
'2:32.000',0.41998810,-1.01999178,-0.10003754,30.40009766,0.41902847
'2:32.125',0.42995392,-1.00999471,-0.09003876,30.40009766,0.41902847
'2:32.250',0.41998810,-1.00999471,-0.10003754,30.40009766,0.41902847
'2:32.375',0.41998810,-1.01999178,-0.10003754,30.40009766,0.41902847
'2:32.500',0.41998810,-1.01999178,-0.09003876,30.40009766,0.41503688
'2:32.625',0.41998810,-1.00999471,-0.10003754,30.40009766,0.41902847
'2:32.750',0.41998810,-1.01999178,-0.09003876,30.40009766,0.41902847
'2:32.875',0.41998810,-1.01999178,-0.09003876,30.40009766,0.41902847
'2:33.000',0.41998810,-1.01999178,-0.09003876,30.40009766,0.41902847
'2:33.125',0.41998810,-1.01999178,-0.10003754,30.40009766,0.41503688
'2:33.250',0.41998810,-1.01999178,-0.09003876,30.40009766,0.41902847
'2:33.375',0.41998810,-1.01999178,-0.09003876,30.40009766,0.41902847
'2:33.500',0.41998810,-1.01999178,-0.09003876,30.40009766,0.41902847
'2:33.625',0.41998810,-1.01999178,-0.10003754,30.40009766,0.41902847
'2:33.750',0.41998810,-1.01999178,-0.10003754,30.40009766,0.41902847
'2:33.875',0.41998810,-1.01999178,-0.09003876,30.40009766,0.41902847
'2:34.000',0.41998810,-1.01999178,-0.10003754,30.40009766,0.41902847
'2:34.125',0.41998810,-1.01999178,-0.10003754,30.40009766,0.41902847
'2:34.250',0.41998810,-1.00999471,-0.09003876,30.40009766,0.41902847
'2:34.375',0.41998810,-1.01999178,-0.10003754,30.40009766,0.41902847
'2:34.500',0.41998810,-1.00999471,-0.10003754,30.40009766,0.41902847
'2:34.625',0.42995392,-1.00999471,-0.10003754,30.40009766,0.41902847
'2:34.750',0.42995392,-1.00999471,-0.10003754,30.40009766,0.41902847
'2:34.875',0.41998810,-1.01999178,-0.10003754,30.40009766,0.41902847
'2:35.000',0.41998810,-1.00999471,-0.10003754,30.40009766,0.41902847
'2:35.125',0.41998810,-1.00999471,-0.10003754,30.40009766,0.41902847
'2:35.250',0.42995392,-1.00999471,-0.10003754,30.40009766,0.41902847
'2:35.375',0.41998810,-1.01999178,-0.10003754,30.40009766,0.41902847
'2:35.500',0.41998810,-1.01999178,-0.09003876,30.40009766,0.41902847
'2:35.625',0.41998810,-1.00999471,-0.10003754,30.40009766,0.41902847
'2:35.750',0.41998810,-1.00999471,-0.10003754,30.40009766,0.41902847
'2:35.875',0.41998810,-1.01999178,-0.10003754,30.40009766,0.41902847
'2:36.000',0.41998810,-1.01999178,-0.10003754,30.40009766,0.41902847
'2:36.125',0.42995392,-1.01999178,-0.10003754,30.40009766,0.42106862
'2:36.250',0.41998810,-1.01999178,-0.10003754,30.40009766,0.41902847
'2:36.375',0.41998810,-1.01999178,-0.10003754,30.40009766,0.41902847
'2:36.500',0.41998810,-1.01999178,-0.09003876,30.40009766,0.41902847
'2:36.625',0.41998810,-1.01999178,-0.10003754,30.40009766,0.42106862
'2:36.750',0.41998810,-1.01999178,-0.10003754,30.40009766,0.41902847
'2:36.875',0.41998810,-1.01999178,-0.09003876,30.40009766,0.41902847
'2:37.000',0.41998810,-1.01999178,-0.09003876,30.40009766,0.41902847
'2:37.125',0.41998810,-1.01999178,-0.09003876,30.40009766,0.41902847
'2:37.250',0.41998810,-1.00999471,-0.10003754,30.40009766,0.41902847
'2:37.375',0.41998810,-1.01999178,-0.10003754,30.40009766,0.42106862
'2:37.500',0.41998810,-1.01999178,-0.09003876,30.40009766,0.41902847
'2:37.625',0.41998810,-1.00999471,-0.10003754,30.60003204,0.41902847
'2:37.750',0.41998810,-1.00999471,-0.09003876,30.40009766,0.41902847
'2:37.875',0.41998810,-1.00999471,-0.10003754,30.40009766,0.42106862
'2:38.000',0.41998810,-1.01999178,-0.10003754,30.40009766,0.42106862
'2:38.125',0.41998810,-1.01999178,-0.09003876,30.60003204,0.42106862
'2:38.250',0.42995392,-1.00999471,-0.10003754,30.40009766,0.41902847
'2:38.375',0.41998810,-1.01999178,-0.10003754,30.40009766,0.42106862
'2:38.500',0.42995392,-1.00999471,-0.10003754,30.40009766,0.42106862
'2:38.625',0.41998810,-1.01999178,-0.10003754,30.40009766,0.41902847
'2:38.750',0.41998810,-1.01999178,-0.10003754,30.40009766,0.41902847
'2:38.875',0.41998810,-1.01999178,-0.10003754,30.60003204,0.42106862
'2:39.000',0.41998810,-1.01999178,-0.10003754,30.40009766,0.41902847
'2:39.125',0.42995392,-1.01999178,-0.10003754,30.60003204,0.41902847
'2:39.250',0.41998810,-1.00999471,-0.10003754,30.60003204,0.41902847
'2:39.375',0.42995392,-1.01999178,-0.09003876,30.60003204,0.41902847
'2:39.500',0.41998810,-1.01999178,-0.10003754,30.40009766,0.42106862
'2:39.625',0.41998810,-1.01999178,-0.09003876,30.60003204,0.42106862
'2:39.750',0.41998810,-1.01999178,-0.09003876,30.60003204,0.41902847
'2:39.875',0.41998810,-1.01999178,-0.10003754,30.60003204,0.42106862
'2:40.000',0.41998810,-1.01999178,-0.09003876,30.60003204,0.42506021
'2:40.125',0.41998810,-1.01999178,-0.10003754,30.40009766,0.42106862
'2:40.250',0.42995392,-1.00999471,-0.09003876,30.60003204,0.42106862
'2:40.375',0.41998810,-1.00999471,-0.09003876,30.60003204,0.42106862
'2:40.500',0.41998810,-1.01999178,-0.09003876,30.60003204,0.42106862
'2:40.625',0.41998810,-1.01999178,-0.09003876,30.60003204,0.42106862
'2:40.750',0.40997482,-1.00999471,-0.09003876,30.60003204,0.42106862
'2:40.875',0.41998810,-1.00999471,-0.09003876,30.60003204,0.42106862
'2:41.000',0.40997482,-1.01999178,-0.09003876,30.60003204,0.42106862
'2:41.125',0.41998810,-1.01999178,-0.09003876,30.60003204,0.42106862
'2:41.250',0.41998810,-1.01999178,-0.09003876,30.60003204,0.42106862
'2:41.375',0.41998810,-1.01999178,-0.09003876,30.60003204,0.42106862
'2:41.500',0.41998810,-1.01999178,-0.09003876,30.60003204,0.42106862
'2:41.625',0.41998810,-1.01999178,-0.09003876,30.60003204,0.42106862
'2:41.750',0.41998810,-1.01999178,-0.10003754,30.60003204,0.42106862
'2:41.875',0.41998810,-1.00999471,-0.09003876,30.60003204,0.42106862
'2:42.000',0.41998810,-1.01999178,-0.10003754,30.60003204,0.42106862
'2:42.125',0.41998810,-1.01999178,-0.10003754,30.60003204,0.42106862
'2:42.250',0.42995392,-1.01999178,-0.10003754,30.60003204,0.42106862
'2:42.375',0.41998810,-1.01999178,-0.10003754,30.60003204,0.42506021
'2:42.500',0.41998810,-1.01999178,-0.10003754,30.60003204,0.42506021
'2:42.625',0.41998810,-1.01999178,-0.10003754,30.60003204,0.42106862
'2:42.750',0.41998810,-1.01999178,-0.10003754,30.40009766,0.42506021
'2:42.875',0.42995392,-1.01999178,-0.10003754,30.60003204,0.42506021
'2:43.000',0.41998810,-1.00999471,-0.10003754,30.60003204,0.42106862
'2:43.125',0.41998810,-1.00999471,-0.09003876,30.60003204,0.42106862
'2:43.250',0.41998810,-1.01999178,-0.10003754,30.60003204,0.42106862
'2:43.375',0.41998810,-1.00999471,-0.10003754,30.60003204,0.42506021
'2:43.500',0.41998810,-1.00999471,-0.10003754,30.60003204,0.42106862
'2:43.625',0.41998810,-1.01999178,-0.10003754,30.60003204,0.42506021
'2:43.750',0.41998810,-1.00999471,-0.10003754,30.60003204,0.42506021
'2:43.875',0.41998810,-1.00999471,-0.10003754,30.60003204,0.42106862
'2:44.000',0.41998810,-1.01999178,-0.09003876,30.60003204,0.42106862
'2:44.125',0.41998810,-1.01999178,-0.10003754,30.60003204,0.42106862
'2:44.250',0.41998810,-1.01999178,-0.10003754,30.60003204,0.42106862
'2:44.375',0.41998810,-1.01999178,-0.09003876,30.60003204,0.42506021
'2:44.500',0.41998810,-1.01999178,-0.10003754,30.60003204,0.42106862
'2:44.625',0.41998810,-1.00999471,-0.09003876,30.60003204,0.42106862
'2:44.750',0.41998810,-1.01999178,-0.09003876,30.60003204,0.42506021
'2:44.875',0.41998810,-1.01999178,-0.09003876,30.60003204,0.42106862
'2:45.000',0.41998810,-1.01999178,-0.09003876,30.60003204,0.42106862
'2:45.125',0.41998810,-1.00999471,-0.10003754,30.60003204,0.42506021
'2:45.250',0.41998810,-1.01999178,-0.09003876,30.60003204,0.42106862
'2:45.375',0.41998810,-1.00999471,-0.09003876,30.60003204,0.42506021
'2:45.500',0.41998810,-1.00999471,-0.10003754,30.60003204,0.42106862
'2:45.625',0.41998810,-1.00999471,-0.09003876,30.60003204,0.42106862
'2:45.750',0.41998810,-1.01999178,-0.10003754,30.60003204,0.42506021
'2:45.875',0.41998810,-1.01999178,-0.10003754,30.60003204,0.42506021
'2:46.000',0.41998810,-1.01999178,-0.10003754,30.60003204,0.42506021
'2:46.125',0.42995392,-1.01999178,-0.10003754,30.60003204,0.42106862
'2:46.250',0.41998810,-1.01999178,-0.10003754,30.60003204,0.42506021
'2:46.375',0.41998810,-1.01999178,-0.10003754,30.60003204,0.42106862
'2:46.500',0.41998810,-1.01999178,-0.10003754,30.60003204,0.42506021
'2:46.625',0.41998810,-1.01999178,-0.10003754,30.60003204,0.42506021
'2:46.750',0.42995392,-1.01999178,-0.10003754,30.60003204,0.42506021
'2:46.875',0.41998810,-1.01999178,-0.10003754,30.60003204,0.42106862
'2:47.000',0.41998810,-1.00999471,-0.09003876,30.60003204,0.42106862
'2:47.125',0.41998810,-1.01999178,-0.10003754,30.60003204,0.42106862
'2:47.250',0.41998810,-1.01999178,-0.10003754,30.60003204,0.42506021
'2:47.375',0.41998810,-1.01999178,-0.09003876,30.60003204,0.42106862
'2:47.500',0.41998810,-1.01999178,-0.10003754,30.60003204,0.42506021
'2:47.625',0.41998810,-1.01999178,-0.09003876,30.60003204,0.42506021
'2:47.750',0.41998810,-1.00999471,-0.10003754,30.60003204,0.42106862
'2:47.875',0.41998810,-1.01999178,-0.09003876,30.79996643,0.42106862
'2:48.000',0.42995392,-1.01999178,-0.09003876,30.60003204,0.42106862
'2:48.125',0.41998810,-1.01999178,-0.09003876,30.60003204,0.42106862
'2:48.250',0.41998810,-1.00999471,-0.09003876,30.60003204,0.42506021
'2:48.375',0.41998810,-1.01999178,-0.09003876,30.60003204,0.42106862
'2:48.500',0.41998810,-1.00999471,-0.09003876,30.60003204,0.42506021
'2:48.625',0.41998810,-1.01999178,-0.09003876,30.60003204,0.42506021
'2:48.750',0.41998810,-1.00999471,-0.09003876,30.60003204,0.42506021
'2:48.875',0.41998810,-1.01999178,-0.09003876,30.79996643,0.42106862
'2:49.000',0.41998810,-1.00999471,-0.09003876,30.60003204,0.42506021
'2:49.125',0.41998810,-1.01999178,-0.09003876,30.60003204,0.42106862
'2:49.250',0.41998810,-1.01999178,-0.10003754,30.60003204,0.42506021
'2:49.375',0.41998810,-1.00999471,-0.09003876,30.60003204,0.42506021
'2:49.500',0.41998810,-1.00999471,-0.09003876,30.79996643,0.42106862
'2:49.625',0.41998810,-1.01999178,-0.10003754,30.60003204,0.42506021
'2:49.750',0.41998810,-1.01999178,-0.10003754,30.60003204,0.42506021
'2:49.875',0.41998810,-1.01999178,-0.10003754,30.79996643,0.42506021
'2:50.000',0.41998810,-1.01999178,-0.09003876,30.60003204,0.42106862
'2:50.125',0.41998810,-1.00999471,-0.10003754,30.79996643,0.42506021
'2:50.250',0.41998810,-1.01999178,-0.10003754,30.60003204,0.42506021
'2:50.375',0.41998810,-1.01999178,-0.10003754,30.79996643,0.42506021
'2:50.500',0.42995392,-1.00999471,-0.10003754,30.60003204,0.42506021
'2:50.625',0.42995392,-1.01999178,-0.10003754,30.79996643,0.42506021
'2:50.750',0.41998810,-1.00999471,-0.10003754,30.79996643,0.42106862
'2:50.875',0.41998810,-1.00999471,-0.09003876,30.79996643,0.42506021
'2:51.000',0.41998810,-1.01999178,-0.10003754,30.79996643,0.42506021
'2:51.125',0.41998810,-1.01999178,-0.10003754,30.79996643,0.42506021
'2:51.250',0.41998810,-1.01999178,-0.10003754,30.79996643,0.42506021
'2:51.375',0.42995392,-1.01999178,-0.10003754,30.79996643,0.42506021
'2:51.500',0.41998810,-1.01999178,-0.10003754,30.60003204,0.42506021
'2:51.625',0.41998810,-1.01999178,-0.10003754,30.79996643,0.42506021
'2:51.750',0.42995392,-1.01999178,-0.10003754,30.79996643,0.42506021
'2:51.875',0.41998810,-1.01999178,-0.10003754,30.79996643,0.42506021
'2:52.000',0.42995392,-1.01999178,-0.09003876,30.79996643,0.42506021
'2:52.125',0.41998810,-1.00999471,-0.09003876,30.79996643,0.42506021
'2:52.250',0.41998810,-1.00999471,-0.10003754,30.60003204,0.42506021
'2:52.375',0.41998810,-1.01999178,-0.09003876,30.79996643,0.42506021
'2:52.500',0.41998810,-1.01999178,-0.10003754,30.79996643,0.42506021
'2:52.625',0.41998810,-1.00999471,-0.09003876,30.79996643,0.42506021
'2:52.750',0.41998810,-1.00999471,-0.10003754,30.79996643,0.42506021
'2:52.875',0.41998810,-1.00999471,-0.09003876,30.79996643,0.42506021
'2:53.000',0.41998810,-1.01999178,-0.09003876,30.79996643,0.42506021
'2:53.125',0.40997482,-1.00999471,-0.09003876,30.79996643,0.42506021
'2:53.250',0.42995392,-1.00999471,-0.09003876,30.79996643,0.42506021
'2:53.375',0.41998810,-1.01999178,-0.09003876,30.79996643,0.42506021
'2:53.500',0.41998810,-1.00999471,-0.10003754,30.79996643,0.42506021
'2:53.625',0.41998810,-1.01999178,-0.09003876,30.79996643,0.42506021
'2:53.750',0.41998810,-1.01999178,-0.09003876,30.79996643,0.42506021
'2:53.875',0.42995392,-1.00999471,-0.09003876,30.79996643,0.42506021
'2:54.000',0.42995392,-1.01999178,-0.09003876,30.79996643,0.42506021
'2:54.125',0.41998810,-1.00999471,-0.10003754,30.79996643,0.42506021
'2:54.250',0.41998810,-1.00999471,-0.09003876,30.79996643,0.42506021
'2:54.375',0.41998810,-1.00999471,-0.09003876,30.79996643,0.42506021
'2:54.500',0.41998810,-1.00999471,-0.10003754,30.79996643,0.42506021
'2:54.625',0.41998810,-1.01999178,-0.10003754,30.79996643,0.42506021
'2:54.750',0.41998810,-1.01999178,-0.10003754,30.79996643,0.42506021
'2:54.875',0.41998810,-1.01999178,-0.09003876,30.79996643,0.42506021
'2:55.000',0.41998810,-1.01999178,-0.10003754,30.79996643,0.42506021
'2:55.125',0.41998810,-1.01999178,-0.10003754,30.79996643,0.42506021
'2:55.250',0.41998810,-1.01999178,-0.10003754,30.79996643,0.42506021
'2:55.375',0.41998810,-1.01999178,-0.10003754,30.79996643,0.42506021
'2:55.500',0.41998810,-1.01999178,-0.10003754,30.79996643,0.42506021
'2:55.625',0.41998810,-1.00999471,-0.10003754,30.79996643,0.42506021
'2:55.750',0.41998810,-1.00999471,-0.09003876,30.79996643,0.42506021
'2:55.875',0.41998810,-1.01999178,-0.09003876,30.79996643,0.42506021
'2:56.000',0.41998810,-1.01999178,-0.10003754,30.79996643,0.42506021
'2:56.125',0.41998810,-1.00999471,-0.10003754,30.79996643,0.42506021
'2:56.250',0.41998810,-1.00999471,-0.10003754,30.79996643,0.42506021
'2:56.375',0.41998810,-1.01999178,-0.10003754,30.79996643,0.42506021
'2:56.500',0.40997482,-1.00999471,-0.10003754,30.79996643,0.42506021
'2:56.625',0.41998810,-1.00999471,-0.09003876,30.79996643,0.42506021
'2:56.750',0.41998810,-1.00999471,-0.09003876,30.79996643,0.42506021
'2:56.875',0.41998810,-1.01999178,-0.09003876,30.79996643,0.42506021
'2:57.000',0.41998810,-1.01999178,-0.09003876,30.79996643,0.42506021
'2:57.125',0.41998810,-1.01999178,-0.09003876,30.79996643,0.42506021
'2:57.250',0.41998810,-1.01999178,-0.09003876,30.79996643,0.42506021
'2:57.375',0.41998810,-1.01999178,-0.09003876,30.79996643,0.42506021
'2:57.500',0.41998810,-1.01999178,-0.09003876,30.79996643,0.42506021
'2:57.625',0.41998810,-1.01999178,-0.09003876,30.79996643,0.42506021
'2:57.750',0.41998810,-1.00999471,-0.09003876,30.79996643,0.42506021
'2:57.875',0.40997482,-1.01999178,-0.09003876,30.79996643,0.42506021
'2:58.000',0.41998810,-1.01999178,-0.09003876,30.79996643,0.42506021
'2:58.125',0.41998810,-1.01999178,-0.09003876,30.79996643,0.42506021
'2:58.250',0.41998810,-1.01999178,-0.09003876,30.79996643,0.42506021
'2:58.375',0.41998810,-1.01999178,-0.09003876,30.79996643,0.42506021
'2:58.500',0.40997482,-1.01999178,-0.09003876,30.79996643,0.42506021
'2:58.625',0.41998810,-1.00999471,-0.09003876,30.79996643,0.42506021
'2:58.750',0.41998810,-1.00999471,-0.09003876,30.79996643,0.42506021
'2:58.875',0.40997482,-1.01999178,-0.09003876,30.79996643,0.42506021
'2:59.000',0.41998810,-1.01999178,-0.09003876,30.79996643,0.42506021
'2:59.125',0.41998810,-1.00999471,-0.10003754,30.79996643,0.42506021
'2:59.250',0.41998810,-1.00999471,-0.09003876,30.79996643,0.42506021
'2:59.375',0.41998810,-1.01999178,-0.09003876,30.79996643,0.42506021
'2:59.500',0.41998810,-1.00999471,-0.09003876,30.79996643,0.42506021
'2:59.625',0.41998810,-1.00999471,-0.09003876,30.79996643,0.42506021
'2:59.750',0.42995392,-1.01999178,-0.09003876,30.79996643,0.42506021
'2:59.875',0.41998810,-1.01999178,-0.09003876,30.79996643,0.42506021
'3:00.000',0.41998810,-1.01999178,-0.09003876,30.79996643,0.42506021
'3:00.125',0.41998810,-1.01999178,-0.09003876,30.79996643,0.42506021
'3:00.250',0.41998810,-1.01999178,-0.09003876,30.79996643,0.42506021
'3:00.375',0.41998810,-1.01999178,-0.09003876,30.79996643,0.42506021
'3:00.500',0.41998810,-1.01999178,-0.10003754,30.79996643,0.42506021
'3:00.625',0.41998810,-1.01999178,-0.09003876,30.79996643,0.42506021
'3:00.750',0.41998810,-1.00999471,-0.09003876,30.79996643,0.42506021
'3:00.875',0.41998810,-1.01999178,-0.09003876,30.79996643,0.42506021
'3:01.000',0.41998810,-1.01999178,-0.10003754,30.79996643,0.42506021
'3:01.125',0.41998810,-1.01999178,-0.09003876,30.79996643,0.42506021
'3:01.250',0.41998810,-1.01999178,-0.09003876,30.79996643,0.42506021
'3:01.375',0.41998810,-1.00999471,-0.09003876,30.79996643,0.42506021
'3:01.500',0.41998810,-1.01999178,-0.09003876,30.79996643,0.42506021
'3:01.625',0.41998810,-1.00999471,-0.09003876,30.79996643,0.42506021
'3:01.750',0.41998810,-1.01999178,-0.09003876,30.79996643,0.42506021
'3:01.875',0.41998810,-1.01999178,-0.09003876,30.79996643,0.42506021
'3:02.000',0.41998810,-1.01999178,-0.09003876,30.79996643,0.42506021
'3:02.125',0.41998810,-1.01999178,-0.09003876,30.79996643,0.42506021
'3:02.250',0.41998810,-1.01999178,-0.09003876,30.79996643,0.42506021
'3:02.375',0.40997482,-1.01999178,-0.09003876,30.79996643,0.42506021
'3:02.500',0.41998810,-1.00999471,-0.09003876,30.79996643,0.42701166
'3:02.625',0.41998810,-1.01999178,-0.09003876,30.79996643,0.42807608
'3:02.750',0.41998810,-1.01999178,-0.09003876,30.79996643,0.42506021
'3:02.875',0.41998810,-1.00999471,-0.09003876,30.79996643,0.42506021
'3:03.000',0.41998810,-1.01999178,-0.09003876,30.79996643,0.42506021
'3:03.125',0.41998810,-1.00999471,-0.09003876,30.79996643,0.42506021
'3:03.250',0.41998810,-1.01999178,-0.09003876,30.79996643,0.42807608
'3:03.375',0.41998810,-1.01999178,-0.09003876,30.99990081,0.42506021
'3:03.500',0.41998810,-1.00999471,-0.09003876,30.79996643,0.42506021
'3:03.625',0.41998810,-1.01999178,-0.09003876,30.79996643,0.43100325
'3:03.750',0.41998810,-1.00999471,-0.09003876,30.79996643,0.42506021
'3:03.875',0.41998810,-1.01999178,-0.09003876,30.79996643,0.42506021
'3:04.000',0.40997482,-1.00999471,-0.09003876,30.79996643,0.42701166
'3:04.125',0.41998810,-1.00999471,-0.09003876,30.79996643,0.42701166
'3:04.250',0.41998810,-1.00999471,-0.10003754,30.79996643,0.43100325
'3:04.375',0.41998810,-1.01999178,-0.10003754,30.79996643,0.42701166
'3:04.500',0.41998810,-1.01999178,-0.10003754,30.99990081,0.43100325
'3:04.625',0.41998810,-1.01999178,-0.10003754,30.99990081,0.42807608
'3:04.750',0.41998810,-1.01999178,-0.10003754,30.99990081,0.43100325
'3:04.875',0.41998810,-1.00999471,-0.09003876,30.99990081,0.43100325
'3:05.000',0.41998810,-1.01999178,-0.10003754,30.99990081,0.42701166
'3:05.125',0.41998810,-1.01999178,-0.10003754,30.99990081,0.43100325
'3:05.250',0.41998810,-1.00999471,-0.08003998,30.79996643,0.42807608
'3:05.375',0.41998810,-1.01999178,-0.10003754,30.79996643,0.43100325
'3:05.500',0.41998810,-1.01999178,-0.10003754,30.99990081,0.42807608
'3:05.625',0.41998810,-1.01999178,-0.10003754,30.99990081,0.43100325
'3:05.750',0.40997482,-0.99999763,-0.09003876,30.99990081,0.43100325
'3:05.875',0.41998810,-1.00999471,-0.10003754,30.79996643,0.42701166
'3:06.000',0.41998810,-1.01999178,-0.10003754,30.79996643,0.43100325
'3:06.125',0.41998810,-1.00999471,-0.10003754,30.99990081,0.43100325
'3:06.250',0.41998810,-1.01999178,-0.10003754,30.99990081,0.43100325
'3:06.375',0.41998810,-1.00999471,-0.10003754,30.99990081,0.43100325
'3:06.500',0.40997482,-1.00999471,-0.09003876,30.99990081,0.43100325
'3:06.625',0.41998810,-1.00999471,-0.10003754,30.99990081,0.43100325
'3:06.750',0.41998810,-1.01999178,-0.10003754,30.99990081,0.43100325
'3:06.875',0.41998810,-1.00999471,-0.10003754,30.99990081,0.43100325
'3:07.000',0.41998810,-1.01999178,-0.10003754,30.99990081,0.43100325
'3:07.125',0.41998810,-1.00999471,-0.09003876,30.99990081,0.43100325
'3:07.250',0.41998810,-1.01999178,-0.10003754,30.99990081,0.43100325
'3:07.375',0.40997482,-1.00999471,-0.10003754,30.79996643,0.43100325
'3:07.500',0.41998810,-1.01999178,-0.10003754,30.99990081,0.43100325
'3:07.625',0.41998810,-1.01999178,-0.10003754,30.99990081,0.43100325
'3:07.750',0.41998810,-1.01999178,-0.10003754,30.99990081,0.43100325
'3:07.875',0.41998810,-1.01999178,-0.09003876,30.79996643,0.43100325
'3:08.000',0.41998810,-1.01999178,-0.09003876,30.99990081,0.43100325
'3:08.125',0.41998810,-1.01999178,-0.10003754,30.99990081,0.43100325
'3:08.250',0.41998810,-1.00999471,-0.09003876,30.99990081,0.43100325
'3:08.375',0.41998810,-1.01999178,-0.10003754,30.99990081,0.43100325
'3:08.500',0.41998810,-1.00999471,-0.09003876,30.99990081,0.43100325
'3:08.625',0.41998810,-1.01999178,-0.10003754,30.99990081,0.43100325
'3:08.750',0.41998810,-1.00999471,-0.09003876,30.99990081,0.43100325
'3:08.875',0.41998810,-1.00999471,-0.09003876,30.99990081,0.43100325
'3:09.000',0.41998810,-1.00999471,-0.09003876,30.99990081,0.43100325
'3:09.125',0.41998810,-1.01999178,-0.09003876,30.99990081,0.43100325
'3:09.250',0.41998810,-1.01999178,-0.09003876,30.99990081,0.43100325
'3:09.375',0.41998810,-1.01999178,-0.10003754,30.99990081,0.43100325
'3:09.500',0.41998810,-1.01999178,-0.09003876,30.99990081,0.43100325
'3:09.625',0.41998810,-1.01999178,-0.09003876,30.99990081,0.43100325
'3:09.750',0.41998810,-1.01999178,-0.09003876,30.99990081,0.43100325
'3:09.875',0.41998810,-1.01999178,-0.09003876,30.99990081,0.43100325
'3:10.000',0.41998810,-1.01999178,-0.09003876,30.99990081,0.43100325
'3:10.125',0.41998810,-1.00999471,-0.09003876,30.99990081,0.43100325
'3:10.250',0.41998810,-1.01999178,-0.10003754,30.99990081,0.43100325
'3:10.375',0.41998810,-1.00999471,-0.10003754,30.99990081,0.43100325
'3:10.500',0.40997482,-1.01999178,-0.10003754,30.99990081,0.43100325
'3:10.625',0.40997482,-1.01999178,-0.09003876,30.99990081,0.43100325
'3:10.750',0.41998810,-1.00999471,-0.09003876,30.99990081,0.43100325
'3:10.875',0.41998810,-1.00999471,-0.10003754,30.99990081,0.43100325
'3:11.000',0.40997482,-1.00999471,-0.09003876,30.99990081,0.43100325
'3:11.125',0.41998810,-1.01999178,-0.09003876,30.99990081,0.43100325
'3:11.250',0.40997482,-1.01999178,-0.09003876,30.99990081,0.43100325
'3:11.375',0.41998810,-1.01999178,-0.09003876,30.99990081,0.43100325
'3:11.500',0.41998810,-1.01999178,-0.09003876,30.99990081,0.43100325
'3:11.625',0.41998810,-1.01999178,-0.09003876,30.99990081,0.43100325
'3:11.750',0.41998810,-1.01999178,-0.09003876,30.99990081,0.43100325
'3:11.875',0.40997482,-1.01999178,-0.09003876,30.99990081,0.43100325
'3:12.000',0.41998810,-1.00999471,-0.09003876,30.99990081,0.43100325
'3:12.125',0.41998810,-1.01999178,-0.09003876,30.99990081,0.43100325
'3:12.250',0.41998810,-1.01999178,-0.09003876,30.99990081,0.43100325
'3:12.375',0.40997482,-1.01999178,-0.10003754,30.99990081,0.43100325
'3:12.500',0.41998810,-1.00999471,-0.09003876,30.99990081,0.43100325
'3:12.625',0.41998810,-1.01999178,-0.10003754,31.19994964,0.43100325
'3:12.750',0.41998810,-1.01999178,-0.10003754,31.19994964,0.43100325
'3:12.875',0.40997482,-1.00999471,-0.10003754,31.19994964,0.43100325
'3:13.000',0.42995392,-1.00999471,-0.10003754,31.19994964,0.43508354
'3:13.125',0.40997482,-1.01999178,-0.11003632,31.19994964,0.43100325
'3:13.250',0.40997482,-1.01999178,-0.11003632,30.99990081,0.43206767
'3:13.375',0.41998810,-1.00999471,-0.10003754,30.99990081,0.43304340
'3:13.500',0.41998810,-1.01999178,-0.10003754,30.99990081,0.43304340
'3:13.625',0.41998810,-1.01999178,-0.10003754,30.99990081,0.43304340
'3:13.750',0.41998810,-1.01999178,-0.10003754,30.99990081,0.43304340
'3:13.875',0.40997482,-1.01999178,-0.10003754,30.99990081,0.43304340
'3:14.000',0.41998810,-1.01999178,-0.10003754,30.99990081,0.43304340
'3:14.125',0.41998810,-1.01999178,-0.10003754,30.99990081,0.43304340
'3:14.250',0.40997482,-1.01999178,-0.10003754,30.99990081,0.43304340
'3:14.375',0.41998810,-1.01999178,-0.10003754,30.99990081,0.43304340
'3:14.500',0.41998810,-1.01999178,-0.10003754,30.99990081,0.43304340
'3:14.625',0.41998810,-1.00999471,-0.10003754,30.99990081,0.43304340
'3:14.750',0.40997482,-1.01999178,-0.09003876,30.99990081,0.43304340
'3:14.875',0.41998810,-1.01999178,-0.10003754,30.99990081,0.43304340
'3:15.000',0.41998810,-1.00999471,-0.09003876,30.99990081,0.43304340
'3:15.125',0.41998810,-1.00999471,-0.09003876,30.99990081,0.43304340
'3:15.250',0.41998810,-1.01999178,-0.09003876,30.99990081,0.43304340
'3:15.375',0.41998810,-1.00999471,-0.10003754,30.99990081,0.43304340
'3:15.500',0.41998810,-1.01999178,-0.09003876,30.99990081,0.43100325
'3:15.625',0.41998810,-1.00999471,-0.09003876,30.99990081,0.43304340
'3:15.750',0.40997482,-1.01999178,-0.09003876,30.99990081,0.43304340
'3:15.875',0.41998810,-1.01999178,-0.10003754,30.99990081,0.43304340
'3:16.000',0.41998810,-1.00999471,-0.09003876,30.99990081,0.43304340
'3:16.125',0.41998810,-1.01999178,-0.09003876,30.99990081,0.43304340
'3:16.250',0.41998810,-1.01999178,-0.09003876,30.99990081,0.43304340
'3:16.375',0.41998810,-1.00999471,-0.09003876,30.99990081,0.43304340
'3:16.500',0.40997482,-1.00999471,-0.10003754,30.99990081,0.43304340
'3:16.625',0.41998810,-1.01999178,-0.09003876,30.99990081,0.43304340
'3:16.750',0.40997482,-1.01999178,-0.09003876,30.99990081,0.43304340
'3:16.875',0.41998810,-1.01999178,-0.09003876,30.99990081,0.43304340
'3:17.000',0.40997482,-1.00999471,-0.09003876,30.99990081,0.43703499
'3:17.125',0.41998810,-1.01999178,-0.09003876,30.99990081,0.43703499
'3:17.250',0.41998810,-1.01999178,-0.09003876,30.99990081,0.43304340
'3:17.375',0.41998810,-1.01999178,-0.09003876,30.99990081,0.43304340
'3:17.500',0.40997482,-1.01999178,-0.09003876,30.99990081,0.43304340
'3:17.625',0.40997482,-1.01999178,-0.09003876,30.99990081,0.43304340
'3:17.750',0.41998810,-1.01999178,-0.09003876,30.99990081,0.43304340
'3:17.875',0.40997482,-1.00999471,-0.09003876,30.99990081,0.43304340
'3:18.000',0.40997482,-1.01999178,-0.09003876,30.99990081,0.43703499
'3:18.125',0.41998810,-1.01999178,-0.09003876,31.19994964,0.43703499
'3:18.250',0.41998810,-1.01999178,-0.09003876,30.99990081,0.43304340
'3:18.375',0.41998810,-1.01999178,-0.09003876,30.99990081,0.43703499
'3:18.500',0.40997482,-1.01999178,-0.09003876,30.99990081,0.43304340
'3:18.625',0.41998810,-1.01999178,-0.09003876,30.99990081,0.43703499
'3:18.750',0.41998810,-1.01999178,-0.09003876,31.19994964,0.43304340
'3:18.875',0.41998810,-1.01999178,-0.09003876,30.99990081,0.43304340
'3:19.000',0.40997482,-1.01999178,-0.09003876,30.99990081,0.43703499
'3:19.125',0.41998810,-1.01999178,-0.09003876,31.19994964,0.43304340
'3:19.250',0.41998810,-1.01999178,-0.09003876,30.99990081,0.43703499
'3:19.375',0.41998810,-1.01999178,-0.09003876,31.19994964,0.43703499
'3:19.500',0.41998810,-1.01999178,-0.09003876,30.99990081,0.43703499
'3:19.625',0.41998810,-1.01999178,-0.09003876,31.19994964,0.43304340
'3:19.750',0.40997482,-1.01999178,-0.10003754,30.99990081,0.43703499
'3:19.875',0.40997482,-1.00999471,-0.10003754,31.19994964,0.43703499
'3:20.000',0.41998810,-1.01999178,-0.09003876,31.19994964,0.43304340
'3:20.125',0.41998810,-1.01999178,-0.10003754,31.19994964,0.43304340
'3:20.250',0.41998810,-1.01999178,-0.10003754,30.99990081,0.43703499
'3:20.375',0.41998810,-1.01999178,-0.10003754,31.19994964,0.43703499
'3:20.500',0.41998810,-1.01999178,-0.10003754,30.99990081,0.43304340
'3:20.625',0.40997482,-1.01999178,-0.09003876,31.19994964,0.43703499
'3:20.750',0.40997482,-1.01999178,-0.10003754,31.19994964,0.43703499
'3:20.875',0.41998810,-1.01999178,-0.09003876,31.19994964,0.43703499
'3:21.000',0.41998810,-1.00999471,-0.10003754,31.19994964,0.43703499
'3:21.125',0.40997482,-1.01999178,-0.09003876,31.19994964,0.43703499
'3:21.250',0.41998810,-1.01999178,-0.09003876,31.19994964,0.43703499
'3:21.375',0.41998810,-1.01999178,-0.10003754,31.19994964,0.43703499
'3:21.500',0.41998810,-1.01999178,-0.10003754,31.19994964,0.43703499
'3:21.625',0.41998810,-1.01999178,-0.09003876,30.99990081,0.43703499
'3:21.750',0.40997482,-1.01999178,-0.09003876,31.19994964,0.43703499
'3:21.875',0.41998810,-1.01999178,-0.09003876,31.19994964,0.43703499
'3:22.000',0.41998810,-1.01999178,-0.10003754,31.19994964,0.44005086
'3:22.125',0.41998810,-1.00999471,-0.09003876,30.99990081,0.43703499
'3:22.250',0.41998810,-1.01999178,-0.09003876,31.19994964,0.43703499
'3:22.375',0.41998810,-1.01999178,-0.09003876,31.19994964,0.43703499
'3:22.500',0.41998810,-1.01999178,-0.10003754,31.19994964,0.43703499
'3:22.625',0.41998810,-1.01999178,-0.09003876,31.19994964,0.43703499
'3:22.750',0.41998810,-1.00999471,-0.09003876,31.19994964,0.43703499
'3:22.875',0.41998810,-1.00999471,-0.09003876,31.19994964,0.43703499
'3:23.000',0.41998810,-1.01999178,-0.09003876,30.99990081,0.43703499
'3:23.125',0.41998810,-1.01999178,-0.09003876,31.19994964,0.44005086
'3:23.250',0.41998810,-1.00999471,-0.09003876,31.19994964,0.43703499
'3:23.375',0.41998810,-1.01999178,-0.09003876,31.19994964,0.43703499
'3:23.500',0.40997482,-1.01999178,-0.09003876,31.19994964,0.43703499
'3:23.625',0.41998810,-1.01999178,-0.10003754,31.19994964,0.43703499
'3:23.750',0.41998810,-1.01999178,-0.09003876,31.19994964,0.43703499
'3:23.875',0.41998810,-1.00999471,-0.10003754,31.19994964,0.43703499
'3:24.000',0.41998810,-1.01999178,-0.09003876,31.19994964,0.43703499
'3:24.125',0.41998810,-1.01999178,-0.10003754,31.19994964,0.43703499
'3:24.250',0.41998810,-1.01999178,-0.10003754,31.19994964,0.43703499
'3:24.375',0.41998810,-1.00999471,-0.10003754,31.19994964,0.43703499
'3:24.500',0.41998810,-1.01999178,-0.10003754,31.19994964,0.44005086
'3:24.625',0.40997482,-1.01999178,-0.10003754,31.19994964,0.43703499
'3:24.750',0.40997482,-1.00999471,-0.10003754,31.19994964,0.44005086
'3:24.875',0.41998810,-1.00999471,-0.10003754,31.19994964,0.44005086
'3:25.000',0.41998810,-1.01999178,-0.10003754,31.19994964,0.43703499
'3:25.125',0.41998810,-1.01999178,-0.10003754,31.19994964,0.44005086
'3:25.250',0.41998810,-1.01999178,-0.10003754,31.19994964,0.44005086
'3:25.375',0.41998810,-1.01999178,-0.10003754,31.19994964,0.44005086
'3:25.500',0.40997482,-1.00999471,-0.10003754,31.19994964,0.44005086
'3:25.625',0.41998810,-1.00999471,-0.10003754,31.19994964,0.44005086
'3:25.750',0.41998810,-1.01999178,-0.09003876,31.19994964,0.44005086
'3:25.875',0.41998810,-1.01999178,-0.09003876,31.19994964,0.44005086
'3:26.000',0.40997482,-1.00999471,-0.10003754,31.19994964,0.44005086
'3:26.125',0.41998810,-1.00999471,-0.09003876,31.19994964,0.43703499
'3:26.250',0.41998810,-1.01999178,-0.10003754,31.19994964,0.44005086
'3:26.375',0.41998810,-1.01999178,-0.09003876,31.19994964,0.44005086
'3:26.500',0.40997482,-1.01999178,-0.09003876,31.19994964,0.44005086
'3:26.625',0.41998810,-1.01999178,-0.10003754,31.19994964,0.44005086
'3:26.750',0.41998810,-1.00999471,-0.09003876,31.19994964,0.44005086
'3:26.875',0.41998810,-1.00999471,-0.09003876,31.19994964,0.44005086
'3:27.000',0.40997482,-1.00999471,-0.10003754,31.19994964,0.44005086
'3:27.125',0.41998810,-1.01999178,-0.09003876,31.19994964,0.44005086
'3:27.250',0.41998810,-1.01999178,-0.10003754,31.19994964,0.44005086
'3:27.375',0.40997482,-1.01999178,-0.09003876,31.19994964,0.44005086
'3:27.500',0.40997482,-1.01999178,-0.10003754,31.19994964,0.44005086
'3:27.625',0.41998810,-1.00999471,-0.10003754,31.19994964,0.44005086
'3:27.750',0.41998810,-1.01999178,-0.10003754,31.19994964,0.44005086
'3:27.875',0.41998810,-1.00999471,-0.10003754,31.19994964,0.44005086
'3:28.000',0.41998810,-1.00999471,-0.10003754,31.19994964,0.44005086
'3:28.125',0.41998810,-1.01999178,-0.10003754,31.19994964,0.44005086
'3:28.250',0.41998810,-1.01999178,-0.10003754,31.19994964,0.44005086
'3:28.375',0.40997482,-1.01999178,-0.10003754,31.19994964,0.44005086
'3:28.500',0.40997482,-1.01999178,-0.10003754,31.19994964,0.44005086
'3:28.625',0.41998810,-1.01999178,-0.10003754,31.19994964,0.44005086
'3:28.750',0.41998810,-1.01999178,-0.09003876,31.19994964,0.44005086
'3:28.875',0.40997482,-1.00999471,-0.10003754,31.19994964,0.44005086
'3:29.000',0.40997482,-1.00999471,-0.10003754,31.19994964,0.44005086
'3:29.125',0.41998810,-1.00999471,-0.10003754,31.19994964,0.44005086
'3:29.250',0.41998810,-1.01999178,-0.09003876,31.19994964,0.44005086
'3:29.375',0.41998810,-1.01999178,-0.10003754,31.19994964,0.44005086
'3:29.500',0.40997482,-1.00999471,-0.10003754,31.19994964,0.44005086
'3:29.625',0.41998810,-1.01999178,-0.09003876,31.19994964,0.44005086
'3:29.750',0.40997482,-1.01999178,-0.09003876,31.19994964,0.44306673
'3:29.875',0.40997482,-1.01999178,-0.10003754,31.19994964,0.44005086
'3:30.000',0.41998810,-1.01999178,-0.10003754,31.19994964,0.44005086
'3:30.125',0.40997482,-1.01999178,-0.09003876,31.19994964,0.44306673
'3:30.250',0.40997482,-1.01999178,-0.09003876,31.19994964,0.44306673
'3:30.375',0.41998810,-1.00999471,-0.09003876,31.19994964,0.44005086
'3:30.500',0.40997482,-1.00999471,-0.10003754,31.19994964,0.44005086
'3:30.625',0.41998810,-1.01999178,-0.09003876,31.19994964,0.44005086
'3:30.750',0.41998810,-1.01999178,-0.09003876,31.19994964,0.44005086
'3:30.875',0.41998810,-1.01999178,-0.10003754,31.19994964,0.44005086
'3:31.000',0.41998810,-1.01999178,-0.09003876,31.19994964,0.44306673
'3:31.125',0.41998810,-1.01999178,-0.09003876,31.19994964,0.44005086
'3:31.250',0.41998810,-1.01999178,-0.09003876,31.19994964,0.44005086
'3:31.375',0.41998810,-1.00999471,-0.10003754,31.19994964,0.44306673
'3:31.500',0.40997482,-1.01999178,-0.10003754,31.39999847,0.44306673
'3:31.625',0.41998810,-1.00999471,-0.10003754,31.19994964,0.44306673
'3:31.750',0.41998810,-1.00999471,-0.10003754,31.19994964,0.44005086
'3:31.875',0.40997482,-1.01999178,-0.10003754,31.19994964,0.44005086
'3:32.000',0.41998810,-1.01999178,-0.10003754,31.19994964,0.44306673
'3:32.125',0.40997482,-1.01999178,-0.10003754,31.19994964,0.44005086
'3:32.250',0.41998810,-1.01999178,-0.10003754,31.19994964,0.44005086
'3:32.375',0.41998810,-1.00999471,-0.10003754,31.19994964,0.44005086
'3:32.500',0.40997482,-1.00999471,-0.10003754,31.39999847,0.44005086
'3:32.625',0.40997482,-1.01999178,-0.10003754,31.19994964,0.44005086
'3:32.750',0.41998810,-1.01999178,-0.10003754,31.19994964,0.44306673
'3:32.875',0.41998810,-1.01999178,-0.10003754,31.19994964,0.44005086
'3:33.000',0.41998810,-1.01999178,-0.09003876,31.19994964,0.44306673
'3:33.125',0.41998810,-1.01999178,-0.10003754,31.39999847,0.44608260
'3:33.250',0.41998810,-1.01999178,-0.10003754,31.19994964,0.44306673
'3:33.375',0.41998810,-1.00999471,-0.09003876,31.19994964,0.44005086
'3:33.500',0.41998810,-1.01999178,-0.09003876,31.19994964,0.44306673
'3:33.625',0.40997482,-1.01999178,-0.09003876,31.19994964,0.44608260
'3:33.750',0.41998810,-1.01999178,-0.09003876,31.39999847,0.44306673
'3:33.875',0.41998810,-1.01999178,-0.09003876,31.19994964,0.44306673
'3:34.000',0.40997482,-1.00999471,-0.10003754,31.19994964,0.44608260
'3:34.125',0.40997482,-1.00999471,-0.09003876,31.39999847,0.44306673
'3:34.250',0.40997482,-1.01999178,-0.09003876,31.19994964,0.44608260
'3:34.375',0.41998810,-1.01999178,-0.09003876,31.19994964,0.44306673
'3:34.500',0.40997482,-1.01999178,-0.09003876,31.39999847,0.44306673
'3:34.625',0.40997482,-1.01999178,-0.10003754,31.39999847,0.44608260
'3:34.750',0.41998810,-1.01999178,-0.09003876,31.19994964,0.44608260
'3:34.875',0.41998810,-1.01999178,-0.09003876,31.19994964,0.44608260
'3:35.000',0.40997482,-1.01999178,-0.10003754,31.19994964,0.44608260
'3:35.125',0.41998810,-1.01999178,-0.09003876,31.19994964,0.44306673
'3:35.250',0.40997482,-1.01999178,-0.09003876,31.19994964,0.44608260
'3:35.375',0.41998810,-1.01999178,-0.09003876,31.39999847,0.44608260
'3:35.500',0.40997482,-1.00999471,-0.09003876,31.39999847,0.44608260
'3:35.625',0.41998810,-1.01999178,-0.09003876,31.19994964,0.44608260
'3:35.750',0.40997482,-1.01999178,-0.09003876,31.39999847,0.44608260
'3:35.875',0.40997482,-1.01999178,-0.09003876,31.39999847,0.44608260
'3:36.000',0.41998810,-1.01999178,-0.09003876,31.39999847,0.44608260
'3:36.125',0.40997482,-1.01999178,-0.10003754,31.19994964,0.44608260
'3:36.250',0.40997482,-1.01999178,-0.09003876,31.39999847,0.44608260
'3:36.375',0.41998810,-1.01999178,-0.09003876,31.39999847,0.44608260
'3:36.500',0.41998810,-1.00999471,-0.09003876,31.39999847,0.44608260
'3:36.625',0.41998810,-1.01999178,-0.09003876,31.39999847,0.44608260
'3:36.750',0.40997482,-1.01999178,-0.09003876,31.39999847,0.44608260
'3:36.875',0.40997482,-1.01999178,-0.09003876,31.39999847,0.44608260
'3:37.000',0.41998810,-1.01999178,-0.09003876,31.39999847,0.44608260
'3:37.125',0.41998810,-1.01999178,-0.09003876,31.39999847,0.44608260
