Elapsed time,ax,ay,az,temp,EDA
'0:00.000',0.44000671,-1.20002167,0.13004944,24.90003662,0.07100108
'0:00.125',0.51000092,-0.82001724,0.38998398,24.90003662,0.06900105
'0:00.250',0.64001892,-0.35003677,0.61995346,24.90003662,0.06900105
'0:00.375',0.81001923,-0.14004395,0.58998840,24.90003662,0.06900105
'0:00.500',0.89995422,-0.27000122,0.50995376,24.90003662,0.07100108
'0:00.625',0.83998077,-0.41004517,0.54999847,24.90003662,0.06800104
'0:00.750',0.85997192,-0.37006394,0.55996857,24.90003662,0.07100108
'0:00.875',0.85997192,-0.42005875,0.56999344,24.90003662,0.07100108
'0:01.000',0.85997192,-0.41004517,0.56999344,24.90003662,0.06900105
'0:01.125',0.83998077,-0.43007233,0.49998367,24.90003662,0.07100108
'0:01.250',0.85997192,-0.37006394,0.40997894,24.90003662,0.06900105
'0:01.375',0.64001892,-0.51003479,0.60998337,24.90003662,0.06900105
'0:01.500',0.04003265,-0.80006317,0.62997833,24.90003662,0.07100108
'0:01.625',-0.30998871,-0.93002045,0.15004440,24.90003662,0.06900105
'0:01.750',-0.23999451,-1.18006760,-0.04996002,24.90003662,0.07100108
'0:01.875',-0.68997162,-1.41001450,-0.04996002,24.90003662,0.07100108
'0:02.000',-0.19996185,-1.01005600,-0.09997482,24.90003662,0.06900105
'0:02.125',-0.14995880,-1.00004242,-0.09997482,24.90003662,0.06900105
'0:02.250',-0.26995605,-0.87001205,-0.07997986,24.90003662,0.07100108
'0:02.375',-0.08998535,-1.00004242,-0.10999969,24.90003662,0.07100108
'0:02.500',-0.03998230,-1.02006958,-0.07997986,24.90003662,0.07100108
'0:02.625',-0.14995880,-0.99002884,-0.09997482,24.90003662,0.06900105
'0:02.750',-0.08998535,-1.00004242,-0.10999969,24.90003662,0.07100108
'0:02.875',-0.09995575,-1.00004242,-0.09997482,24.90003662,0.07100108
'0:03.000',-0.09995575,-1.01005600,-0.09997482,24.90003662,0.07100108
'0:03.125',-0.09995575,-1.00004242,-0.10999969,24.90003662,0.07100108
'0:03.250',-0.09995575,-1.00004242,-0.07997986,24.90003662,0.06900105
'0:03.375',-0.09995575,-1.01005600,-0.10999969,24.90003662,0.07100108
'0:03.500',-0.09995575,-1.01005600,-0.09997482,25.10009308,0.07100108
'0:03.625',-0.09995575,-1.00004242,-0.10999969,24.90003662,0.07100108
'0:03.750',-0.09995575,-1.00004242,-0.10999969,24.90003662,0.07100108
'0:03.875',-0.09995575,-1.00004242,-0.09997482,24.90003662,0.07100108
'0:04.000',-0.10997650,-1.01005600,-0.09997482,24.90003662,0.07100108
'0:04.125',-0.08998535,-1.00004242,-0.10999969,24.90003662,0.07100108
'0:04.250',-0.09995575,-1.00004242,-0.10999969,24.90003662,0.06900105
'0:04.375',-0.09995575,-1.00004242,-0.09997482,24.90003662,0.06900105
'0:04.500',-0.08998535,-1.00004242,-0.10999969,24.90003662,0.07100108
'0:04.625',-0.09995575,-1.00004242,-0.10999969,25.10009308,0.07100108
'0:04.750',-0.09995575,-1.00004242,-0.10999969,24.90003662,0.07100108
'0:04.875',-0.09995575,-1.00004242,-0.10999969,25.10009308,0.07100108
'0:05.000',-0.08998535,-1.01005600,-0.10999969,24.90003662,0.07100108
'0:05.125',-0.08998535,-1.00004242,-0.10999969,24.90003662,0.07100108
'0:05.250',-0.09995575,-1.00004242,-0.10999969,25.10009308,0.07100108
'0:05.375',-0.09995575,-1.01005600,-0.09997482,25.10009308,0.06900105
'0:05.500',-0.09995575,-1.00004242,-0.10999969,25.10009308,0.07100108
'0:05.625',-0.09995575,-1.00004242,-0.10999969,24.90003662,0.07100108
'0:05.750',-0.09995575,-1.01005600,-0.09997482,25.10009308,0.07100108
'0:05.875',-0.08998535,-1.00004242,-0.10999969,25.10009308,0.07100108
'0:06.000',-0.09995575,-1.00004242,-0.10999969,25.10009308,0.07100108
'0:06.125',-0.09995575,-1.01005600,-0.10999969,25.10009308,0.07100108
'0:06.250',-0.09995575,-1.00004242,-0.10999969,25.10009308,0.07100108
'0:06.375',-0.09995575,-1.00004242,-0.10999969,25.10009308,0.07100108
'0:06.500',-0.08998535,-1.01005600,-0.10999969,24.90003662,0.07100108
'0:06.625',-0.08998535,-1.01005600,-0.10999969,25.10009308,0.07100108
'0:06.750',-0.09995575,-1.00004242,-0.10999969,25.10009308,0.07100108
'0:06.875',-0.08998535,-1.00004242,-0.10999969,25.10009308,0.07100108
'0:07.000',-0.09995575,-1.01005600,-0.10999969,25.10009308,0.07100108
'0:07.125',-0.09995575,-1.00004242,-0.10999969,25.10009308,0.07100108
'0:07.250',-0.08998535,-1.01005600,-0.10999969,25.10009308,0.07100108
'0:07.375',-0.10997650,-1.00004242,-0.10999969,25.10009308,0.07100108
'0:07.500',-0.08998535,-1.01005600,-0.10999969,25.10009308,0.07100108
'0:07.625',-0.08998535,-1.01005600,-0.10999969,25.10009308,0.07100108
'0:07.750',-0.09995575,-1.00004242,-0.10999969,25.10009308,0.07100108
'0:07.875',-0.09995575,-1.00004242,-0.10999969,25.10009308,0.07100108
'0:08.000',-0.09995575,-1.00004242,-0.10999969,25.10009308,0.07100108
'0:08.125',-0.08998535,-1.00004242,-0.10999969,25.10009308,0.07100108
'0:08.250',-0.10997650,-1.00004242,-0.10999969,25.10009308,0.07100108
'0:08.375',-0.08998535,-1.01005600,-0.10999969,25.10009308,0.06800104
'0:08.500',-0.08998535,-1.01005600,-0.10999969,25.10009308,0.07100108
'0:08.625',-0.09995575,-1.00004242,-0.10999969,25.10009308,0.07100108
'0:08.750',-0.09995575,-1.00004242,-0.10999969,25.10009308,0.07100108
'0:08.875',-0.09995575,-1.01005600,-0.10999969,25.10009308,0.07100108
'0:09.000',-0.09995575,-1.00004242,-0.10999969,25.10009308,0.07100108
'0:09.125',-0.09995575,-1.00004242,-0.10999969,25.10009308,0.07100108
'0:09.250',-0.09995575,-1.00004242,-0.10999969,25.10009308,0.07100108
'0:09.375',-0.09995575,-1.00004242,-0.10999969,25.10009308,0.07100108
'0:09.500',-0.09995575,-1.00004242,-0.10999969,25.10009308,0.07100108
'0:09.625',-0.09995575,-1.01005600,-0.10999969,25.10009308,0.07100108
'0:09.750',-0.08998535,-1.00004242,-0.10999969,25.10009308,0.07100108
'0:09.875',-0.09995575,-1.00004242,-0.10999969,25.10009308,0.07100108
'0:10.000',-0.09995575,-1.01005600,-0.10999969,25.10009308,0.07100108
'0:10.125',-0.08998535,-1.00004242,-0.10999969,25.10009308,0.07100108
'0:10.250',-0.09995575,-1.01005600,-0.10999969,25.10009308,0.07100108
'0:10.375',-0.09995575,-1.01005600,-0.10999969,25.10009308,0.07100108
'0:10.500',-0.09995575,-1.00004242,-0.10999969,25.10009308,0.07100108
'0:10.625',-0.08998535,-1.01005600,-0.10999969,25.10009308,0.07100108
'0:10.750',-0.09995575,-1.00004242,-0.10999969,25.10009308,0.07100108
'0:10.875',-0.09995575,-1.00004242,-0.10999969,25.10009308,0.07100108
'0:11.000',-0.09995575,-1.00004242,-0.10999969,25.10009308,0.07100108
'0:11.125',-0.09995575,-1.00004242,-0.09997482,25.10009308,0.07100108
'0:11.250',-0.09995575,-1.00004242,-0.10999969,25.10009308,0.07100108
'0:11.375',-0.09995575,-1.00004242,-0.10999969,25.10009308,0.07100108
'0:11.500',-0.09995575,-1.01005600,-0.10999969,25.10009308,0.07100108
'0:11.625',-0.09995575,-1.00004242,-0.10999969,25.10009308,0.07100108
'0:11.750',-0.09995575,-1.00004242,-0.10999969,25.10009308,0.07100108
'0:11.875',-0.09995575,-1.00004242,-0.10999969,25.30005036,0.07100108
'0:12.000',-0.09995575,-1.00004242,-0.10999969,25.10009308,0.07100108
'0:12.125',-0.09995575,-1.01005600,-0.10999969,25.30005036,0.07100108
'0:12.250',-0.09995575,-1.00004242,-0.10999969,25.10009308,0.07100108
'0:12.375',-0.08998535,-1.00004242,-0.10999969,25.10009308,0.07100108
'0:12.500',-0.09995575,-1.00004242,-0.10999969,25.10009308,0.07100108
'0:12.625',-0.09995575,-1.00004242,-0.10999969,25.10009308,0.07100108
'0:12.750',-0.09995575,-1.01005600,-0.10999969,25.10009308,0.07100108
'0:12.875',-0.09995575,-1.00004242,-0.10999969,25.30005036,0.07100108
'0:13.000',-0.09995575,-1.00004242,-0.10999969,25.10009308,0.07100108
'0:13.125',-0.09995575,-1.01005600,-0.10999969,25.10009308,0.07100108
'0:13.250',-0.08998535,-1.00004242,-0.10999969,25.10009308,0.07100108
'0:13.375',-0.08998535,-1.01005600,-0.10999969,25.10009308,0.07100108
'0:13.500',-0.08998535,-1.01005600,-0.10999969,25.10009308,0.07100108
'0:13.625',-0.09995575,-1.00004242,-0.10999969,25.10009308,0.07100108
'0:13.750',-0.08998535,-1.00004242,-0.10999969,25.10009308,0.07100108
'0:13.875',-0.09995575,-1.00004242,-0.10999969,25.10009308,0.07100108
'0:14.000',-0.09995575,-1.00004242,-0.10999969,25.30005036,0.07100108
'0:14.125',-0.09995575,-1.00004242,-0.10999969,25.10009308,0.07100108
'0:14.250',-0.09995575,-1.00004242,-0.10999969,25.30005036,0.07100108
'0:14.375',-0.09995575,-1.00004242,-0.10999969,25.30005036,0.07100108
'0:14.500',-0.09995575,-1.00004242,-0.10999969,25.30005036,0.07100108
'0:14.625',-0.10997650,-1.00004242,-0.10999969,25.30005036,0.07100108
'0:14.750',-0.09995575,-1.01005600,-0.10999969,25.30005036,0.07100108
'0:14.875',-0.08998535,-1.01005600,-0.10999969,25.30005036,0.07100108
'0:15.000',-0.08998535,-1.01005600,-0.10999969,25.10009308,0.07100108
'0:15.125',-0.08998535,-1.01005600,-0.10999969,25.30005036,0.07100108
'0:15.250',-0.09995575,-1.01005600,-0.10999969,25.30005036,0.07100108
'0:15.375',-0.08998535,-1.01005600,-0.10999969,25.30005036,0.07100108
'0:15.500',-0.08998535,-1.01005600,-0.10999969,25.30005036,0.07100108
'0:15.625',-0.09995575,-1.00004242,-0.10999969,25.30005036,0.07100108
'0:15.750',-0.09995575,-1.00004242,-0.10999969,25.30005036,0.07100108
'0:15.875',-0.09995575,-1.00004242,-0.10999969,25.30005036,0.07100108
'0:16.000',-0.09995575,-1.00004242,-0.10999969,25.30005036,0.07100108
'0:16.125',-0.09995575,-1.00004242,-0.09997482,25.30005036,0.07100108
'0:16.250',-0.09995575,-1.01005600,-0.10999969,25.30005036,0.07100108
'0:16.375',-0.08998535,-1.00004242,-0.10999969,25.30005036,0.07100108
'0:16.500',-0.09995575,-1.00004242,-0.10999969,25.30005036,0.07100108
'0:16.625',-0.09995575,-1.01005600,-0.10999969,25.30005036,0.07100108
'0:16.750',-0.09995575,-1.00004242,-0.10999969,25.30005036,0.07100108
'0:16.875',-0.09995575,-1.00004242,-0.10999969,25.30005036,0.07100108
'0:17.000',-0.09995575,-1.00004242,-0.10999969,25.30005036,0.07100108
'0:17.125',-0.09995575,-1.00004242,-0.10999969,25.30005036,0.07100108
'0:17.250',-0.08998535,-1.01005600,-0.10999969,25.30005036,0.07100108
'0:17.375',-0.09995575,-1.00004242,-0.10999969,25.30005036,0.07100108
'0:17.500',-0.08998535,-1.00004242,-0.10999969,25.30005036,0.07100108
'0:17.625',-0.09995575,-1.00004242,-0.10999969,25.30005036,0.07100108
'0:17.750',-0.08998535,-1.01005600,-0.10999969,25.30005036,0.07100108
'0:17.875',-0.09995575,-1.01005600,-0.10999969,25.30005036,0.07100108
'0:18.000',-0.09995575,-1.00004242,-0.10999969,25.30005036,0.07100108
'0:18.125',-0.09995575,-1.00004242,-0.10999969,25.30005036,0.07100108
'0:18.250',-0.09995575,-1.00004242,-0.10999969,25.30005036,0.07100108
'0:18.375',-0.09995575,-1.00004242,-0.10999969,25.30005036,0.07100108
'0:18.500',-0.09995575,-1.00004242,-0.10999969,25.30005036,0.06900105
'0:18.625',-0.09995575,-1.00004242,-0.10999969,25.30005036,0.07100108
'0:18.750',-0.09995575,-1.00004242,-0.10999969,25.30005036,0.07100108
'0:18.875',-0.09995575,-1.00004242,-0.10999969,25.30005036,0.07100108
'0:19.000',-0.09995575,-1.00004242,-0.10999969,25.30005036,0.07100108
'0:19.125',-0.09995575,-1.00004242,-0.10999969,25.30005036,0.07100108
'0:19.250',-0.09995575,-1.01005600,-0.11996979,25.30005036,0.07100108
'0:19.375',-0.09995575,-1.00004242,-0.10999969,25.30005036,0.07100108
'0:19.500',-0.09995575,-1.00004242,-0.10999969,25.30005036,0.07100108
'0:19.625',-0.09995575,-1.00004242,-0.10999969,25.30005036,0.07100108
'0:19.750',-0.09995575,-1.00004242,-0.10999969,25.30005036,0.07100108
'0:19.875',-0.09995575,-1.01005600,-0.10999969,25.30005036,0.07100108
'0:20.000',-0.09995575,-1.00004242,-0.10999969,25.30005036,0.07100108
'0:20.125',-0.09995575,-1.00004242,-0.10999969,25.30005036,0.07100108
'0:20.250',-0.10997650,-1.00004242,-0.10999969,25.30005036,0.07100108
'0:20.375',-0.09995575,-1.00004242,-0.10999969,25.30005036,0.07100108
'0:20.500',-0.09995575,-1.01005600,-0.12999466,25.30005036,0.07100108
'0:20.625',-0.09995575,-1.00004242,-0.10999969,25.30005036,0.07100108
'0:20.750',-0.10997650,-1.00004242,-0.10999969,25.30005036,0.07100108
'0:20.875',-0.09995575,-1.00004242,-0.10999969,25.30005036,0.07100108
'0:21.000',-0.10997650,-1.01005600,-0.11996979,25.30005036,0.07100108
'0:21.125',-0.10997650,-1.00004242,-0.10999969,25.60008545,0.07100108
'0:21.250',-0.10997650,-1.00004242,-0.10999969,25.60008545,0.07100108
'0:21.375',-0.09995575,-1.00004242,-0.10999969,25.30005036,0.07100108
'0:21.500',-0.10997650,-1.00004242,-0.10999969,25.30005036,0.07100108
'0:21.625',-0.11999725,-1.00004242,-0.10999969,25.60008545,0.07100108
'0:21.750',-0.09995575,-1.00004242,-0.10999969,25.30005036,0.07100108
'0:21.875',-0.09995575,-1.00004242,-0.10999969,25.30005036,0.07100108
'0:22.000',-0.09995575,-1.00004242,-0.10999969,25.30005036,0.07100108
'0:22.125',-0.09995575,-1.00004242,-0.10999969,25.60008545,0.07100108
'0:22.250',-0.09995575,-1.00004242,-0.10999969,25.60008545,0.07100108
'0:22.375',-0.09995575,-1.01005600,-0.10999969,25.30005036,0.07100108
'0:22.500',-0.09995575,-1.00004242,-0.10999969,25.30005036,0.07100108
'0:22.625',-0.09995575,-1.00004242,-0.10999969,25.30005036,0.07100108
'0:22.750',-0.09995575,-1.00004242,-0.10999969,25.30005036,0.07100108
'0:22.875',-0.09995575,-1.00004242,-0.10999969,25.30005036,0.07100108
'0:23.000',-0.10997650,-1.00004242,-0.10999969,25.30005036,0.07100108
'0:23.125',-0.09995575,-1.01005600,-0.10999969,25.30005036,0.07100108
'0:23.250',-0.09995575,-1.01005600,-0.09997482,25.30005036,0.07100108
'0:23.375',-0.09995575,-1.01005600,-0.10999969,25.30005036,0.07100108
'0:23.500',-0.09995575,-1.00004242,-0.10999969,25.30005036,0.07100108
'0:23.625',-0.10997650,-1.01005600,-0.11996979,25.60008545,0.07100108
'0:23.750',-0.09995575,-1.00004242,-0.10999969,25.60008545,0.07100108
'0:23.875',-0.09995575,-1.00004242,-0.10999969,25.60008545,0.07100108
'0:24.000',-0.10997650,-1.00004242,-0.10999969,25.60008545,0.06900105
'0:24.125',-0.08998535,-1.00004242,-0.10999969,25.30005036,0.07100108
'0:24.250',-0.08998535,-1.00004242,-0.10999969,25.60008545,0.07100108
'0:24.375',-0.09995575,-1.00004242,-0.10999969,25.60008545,0.07100108
'0:24.500',-0.08998535,-1.01005600,-0.10999969,25.60008545,0.07100108
'0:24.625',-0.08998535,-1.00004242,-0.10999969,25.60008545,0.07100108
'0:24.750',-0.08998535,-1.01005600,-0.10999969,25.60008545,0.07100108
'0:24.875',-0.08998535,-1.00004242,-0.10999969,25.60008545,0.07100108
'0:25.000',-0.08998535,-1.01005600,-0.10999969,25.60008545,0.07100108
'0:25.125',-0.09995575,-1.00004242,-0.10999969,25.60008545,0.07100108
'0:25.250',-0.08998535,-1.01005600,-0.10999969,25.60008545,0.07100108
'0:25.375',-0.09995575,-1.00004242,-0.10999969,25.60008545,0.07100108
'0:25.500',-0.08998535,-1.00004242,-0.10999969,25.60008545,0.07100108
'0:25.625',-0.09995575,-1.01005600,-0.10999969,25.30005036,0.07100108
'0:25.750',-0.09995575,-1.00004242,-0.10999969,25.60008545,0.07100108
'0:25.875',-0.08998535,-1.01005600,-0.09997482,25.60008545,0.07300111
'0:26.000',-0.09995575,-1.00004242,-0.10999969,25.60008545,0.07100108
'0:26.125',-0.08998535,-1.00004242,-0.10999969,25.60008545,0.07100108
'0:26.250',-0.09995575,-1.00004242,-0.10999969,25.30005036,0.07100108
'0:26.375',-0.09995575,-1.01005600,-0.10999969,25.60008545,0.07100108
'0:26.500',-0.09995575,-1.00004242,-0.10999969,25.60008545,0.07100108
'0:26.625',-0.09995575,-1.00004242,-0.10999969,25.60008545,0.07100108
'0:26.750',-0.09995575,-1.01005600,-0.10999969,25.60008545,0.07100108
'0:26.875',-0.09995575,-1.01005600,-0.10999969,25.60008545,0.07100108
'0:27.000',-0.10997650,-1.00004242,-0.10999969,25.60008545,0.07100108
'0:27.125',-0.09995575,-1.01005600,-0.10999969,25.60008545,0.07100108
'0:27.250',-0.09995575,-1.00004242,-0.10999969,25.60008545,0.07100108
'0:27.375',-0.09995575,-1.01005600,-0.10999969,25.60008545,0.07100108
'0:27.500',-0.08998535,-1.01005600,-0.10999969,25.60008545,0.07100108
'0:27.625',-0.09995575,-1.00004242,-0.10999969,25.60008545,0.07100108
'0:27.750',-0.09995575,-1.00004242,-0.10999969,25.60008545,0.07100108
'0:27.875',-0.09995575,-1.00004242,-0.10999969,25.60008545,0.07100108
'0:28.000',-0.09995575,-1.01005600,-0.10999969,25.60008545,0.07100108
'0:28.125',-0.09995575,-1.00004242,-0.10999969,25.60008545,0.07100108
'0:28.250',-0.09995575,-1.00004242,-0.10999969,25.60008545,0.07100108
'0:28.375',-0.09995575,-1.00004242,-0.10999969,25.60008545,0.07100108
'0:28.500',-0.08998535,-1.00004242,-0.10999969,25.60008545,0.07100108
'0:28.625',-0.08998535,-1.01005600,-0.10999969,25.60008545,0.07100108
'0:28.750',-0.09995575,-1.00004242,-0.10999969,25.60008545,0.07100108
'0:28.875',-0.08998535,-1.01005600,-0.10999969,25.60008545,0.07100108
'0:29.000',-0.09995575,-1.00004242,-0.10999969,25.60008545,0.07100108
'0:29.125',-0.09995575,-1.00004242,-0.10999969,25.60008545,0.07100108
'0:29.250',-0.09995575,-1.01005600,-0.10999969,25.60008545,0.07100108
'0:29.375',-0.09995575,-1.00004242,-0.10999969,25.60008545,0.07100108
'0:29.500',-0.09995575,-1.00004242,-0.10999969,25.60008545,0.07100108
'0:29.625',-0.09995575,-1.00004242,-0.10999969,25.60008545,0.07100108
'0:29.750',-0.09995575,-1.00004242,-0.10999969,25.60008545,0.07300111
'0:29.875',-0.09995575,-1.00004242,-0.10999969,25.60008545,0.07100108
'0:30.000',-0.09995575,-1.00004242,-0.10999969,25.60008545,0.07100108
'0:30.125',-0.09995575,-1.00004242,-0.10999969,25.60008545,0.07100108
'0:30.250',-0.10997650,-1.00004242,-0.10999969,25.60008545,0.07100108
'0:30.375',-0.09995575,-1.00004242,-0.10999969,25.80004273,0.07100108
'0:30.500',-0.09995575,-1.00004242,-0.10999969,25.60008545,0.07300111
'0:30.625',-0.09995575,-1.01005600,-0.10999969,25.60008545,0.07100108
'0:30.750',-0.08998535,-1.01005600,-0.10999969,25.80004273,0.07100108
'0:30.875',-0.08998535,-1.01005600,-0.11996979,25.60008545,0.07100108
'0:31.000',-0.09995575,-1.00004242,-0.10999969,25.60008545,0.07100108
'0:31.125',-0.09995575,-1.01005600,-0.10999969,25.60008545,0.07100108
'0:31.250',-0.09995575,-1.01005600,-0.10999969,25.60008545,0.07100108
'0:31.375',-0.08998535,-1.01005600,-0.10999969,25.60008545,0.07100108
'0:31.500',-0.08998535,-1.00004242,-0.10999969,25.60008545,0.07100108
'0:31.625',-0.09995575,-1.00004242,-0.10999969,25.60008545,0.07100108
'0:31.750',-0.08998535,-1.01005600,-0.10999969,25.60008545,0.07100108
'0:31.875',-0.09995575,-1.00004242,-0.10999969,25.60008545,0.07100108
'0:32.000',-0.09995575,-1.01005600,-0.10999969,25.80004273,0.07100108
'0:32.125',-0.08998535,-1.00004242,-0.10999969,25.80004273,0.07100108
'0:32.250',-0.09995575,-1.00004242,-0.10999969,25.80004273,0.07100108
'0:32.375',-0.09995575,-1.01005600,-0.10999969,25.80004273,0.07100108
'0:32.500',-0.09995575,-1.00004242,-0.10999969,25.60008545,0.07100108
'0:32.625',-0.09995575,-1.01005600,-0.10999969,25.60008545,0.07100108
'0:32.750',-0.09995575,-1.00004242,-0.10999969,25.80004273,0.07100108
'0:32.875',-0.08998535,-1.00004242,-0.10999969,25.80004273,0.07100108
'0:33.000',-0.10997650,-1.00004242,-0.10999969,25.60008545,0.07100108
'0:33.125',-0.09995575,-1.01005600,-0.10999969,25.80004273,0.07100108
'0:33.250',-0.09995575,-1.01005600,-0.10999969,25.80004273,0.07100108
'0:33.375',-0.09995575,-1.00004242,-0.10999969,25.80004273,0.07100108
'0:33.500',-0.09995575,-1.01005600,-0.10999969,25.80004273,0.07100108
'0:33.625',-0.08998535,-1.00004242,-0.10999969,25.80004273,0.07100108
'0:33.750',-0.09995575,-1.00004242,-0.10999969,25.80004273,0.07100108
'0:33.875',-0.08998535,-1.00004242,-0.10999969,25.80004273,0.07300111
'0:34.000',-0.09995575,-1.00004242,-0.10999969,25.80004273,0.07300111
'0:34.125',-0.08998535,-1.00004242,-0.10999969,25.80004273,0.07100108
'0:34.250',-0.10997650,-1.01005600,-0.10999969,25.80004273,0.07300111
'0:34.375',-0.09995575,-1.00004242,-0.10999969,25.60008545,0.07100108
'0:34.500',-0.09995575,-1.00004242,-0.10999969,25.80004273,0.07100108
'0:34.625',-0.09995575,-1.01005600,-0.10999969,25.80004273,0.07100108
'0:34.750',-0.09995575,-1.00004242,-0.10999969,25.80004273,0.07100108
'0:34.875',-0.08998535,-1.01005600,-0.10999969,25.80004273,0.07100108
'0:35.000',-0.08998535,-1.01005600,-0.10999969,25.80004273,0.07300111
'0:35.125',-0.09995575,-1.00004242,-0.10999969,25.80004273,0.07100108
'0:35.250',-0.08998535,-1.00004242,-0.10999969,25.80004273,0.07300111
'0:35.375',-0.09995575,-1.01005600,-0.10999969,25.80004273,0.07100108
'0:35.500',-0.09995575,-1.00004242,-0.10999969,25.80004273,0.07100108
'0:35.625',-0.09995575,-1.00004242,-0.10999969,25.80004273,0.07300111
'0:35.750',-0.08998535,-1.00004242,-0.10999969,25.80004273,0.07100108
'0:35.875',-0.09995575,-1.00004242,-0.10999969,25.80004273,0.07100108
'0:36.000',-0.08998535,-1.00004242,-0.10999969,25.80004273,0.07100108
'0:36.125',-0.09995575,-1.00004242,-0.10999969,25.80004273,0.07300111
'0:36.250',-0.09995575,-1.00004242,-0.10999969,25.80004273,0.07100108
'0:36.375',-0.09995575,-1.01005600,-0.10999969,25.80004273,0.07100108
'0:36.500',-0.09995575,-1.01005600,-0.10999969,25.80004273,0.07300111
'0:36.625',-0.09995575,-1.01005600,-0.10999969,25.80004273,0.07100108
'0:36.750',-0.09995575,-1.00004242,-0.10999969,25.80004273,0.07100108
'0:36.875',-0.09995575,-1.00004242,-0.10999969,25.80004273,0.07100108
'0:37.000',-0.10997650,-1.00004242,-0.10999969,25.80004273,0.07100108
'0:37.125',-0.09995575,-1.00004242,-0.10999969,25.80004273,0.07300111
'0:37.250',-0.09995575,-1.00004242,-0.10999969,25.80004273,0.07300111
'0:37.375',-0.09995575,-1.00004242,-0.10999969,25.80004273,0.07100108
'0:37.500',-0.09995575,-1.00004242,-0.10999969,25.80004273,0.07300111
'0:37.625',-0.08998535,-1.01005600,-0.10999969,25.80004273,0.07100108
'0:37.750',-0.09995575,-1.00004242,-0.10999969,25.80004273,0.07100108
'0:37.875',-0.09995575,-1.01005600,-0.10999969,25.80004273,0.07300111
'0:38.000',-0.09995575,-1.00004242,-0.10999969,25.80004273,0.07100108
'0:38.125',-0.09995575,-1.00004242,-0.10999969,25.80004273,0.07100108
'0:38.250',-0.09995575,-1.00004242,-0.10999969,25.80004273,0.07100108
'0:38.375',-0.09995575,-1.01005600,-0.10999969,25.80004273,0.07100108
'0:38.500',-0.08998535,-1.01005600,-0.10999969,25.80004273,0.07100108
'0:38.625',-0.09995575,-1.00004242,-0.10999969,25.80004273,0.07300111
'0:38.750',-0.10997650,-1.00004242,-0.10999969,25.80004273,0.07100108
'0:38.875',-0.09995575,-1.00004242,-0.10999969,25.80004273,0.07100108
'0:39.000',-0.09995575,-1.00004242,-0.11996979,25.80004273,0.07300111
'0:39.125',-0.09995575,-1.01005600,-0.10999969,25.80004273,0.07100108
'0:39.250',-0.09995575,-1.00004242,-0.10999969,25.80004273,0.07100108
'0:39.375',-0.09995575,-1.00004242,-0.10999969,25.80004273,0.07100108
'0:39.500',-0.09995575,-1.00004242,-0.10999969,25.80004273,0.07100108
'0:39.625',-0.09995575,-1.01005600,-0.10999969,25.80004273,0.07300111
'0:39.750',-0.09995575,-1.00004242,-0.10999969,25.80004273,0.07300111
'0:39.875',-0.08998535,-1.01005600,-0.10999969,25.80004273,0.07100108
'0:40.000',-0.09995575,-1.00004242,-0.10999969,25.80004273,0.07100108
'0:40.125',-0.09995575,-1.00004242,-0.10999969,25.80004273,0.07100108
'0:40.250',-0.09995575,-1.00004242,-0.10999969,25.80004273,0.07300111
'0:40.375',-0.10997650,-1.00004242,-0.10999969,25.80004273,0.07100108
'0:40.500',-0.09995575,-1.00004242,-0.10999969,25.80004273,0.07300111
'0:40.625',-0.08998535,-1.01005600,-0.10999969,25.80004273,0.07300111
'0:40.750',-0.09995575,-1.00004242,-0.10999969,25.80004273,0.07100108
'0:40.875',-0.09995575,-1.00004242,-0.10999969,25.80004273,0.07300111
'0:41.000',-0.09995575,-1.00004242,-0.10999969,25.80004273,0.07100108
'0:41.125',-0.09995575,-1.00004242,-0.10999969,25.80004273,0.07300111
'0:41.250',-0.09995575,-1.00004242,-0.10999969,25.80004273,0.07300111
'0:41.375',-0.09995575,-1.00004242,-0.10999969,25.80004273,0.07100108
'0:41.500',-0.08998535,-1.01005600,-0.10999969,25.80004273,0.07100108
'0:41.625',-0.08998535,-1.00004242,-0.10999969,25.80004273,0.07100108
'0:41.750',-0.09995575,-1.00004242,-0.10999969,25.80004273,0.07100108
'0:41.875',-0.09995575,-1.01005600,-0.10999969,25.80004273,0.07100108
'0:42.000',-0.09995575,-1.00004242,-0.10999969,25.80004273,0.07300111
'0:42.125',-0.09995575,-1.00004242,-0.10999969,25.80004273,0.07100108
'0:42.250',-0.08998535,-1.00004242,-0.10999969,25.80004273,0.07300111
'0:42.375',-0.09995575,-1.00004242,-0.10999969,25.80004273,0.07300111
'0:42.500',-0.09995575,-1.00004242,-0.10999969,25.80004273,0.07100108
'0:42.625',-0.09995575,-1.01005600,-0.10999969,25.80004273,0.07100108
'0:42.750',-0.09995575,-1.01005600,-0.10999969,25.80004273,0.07300111
'0:42.875',-0.09995575,-1.00004242,-0.10999969,25.80004273,0.07300111
'0:43.000',-0.09995575,-1.00004242,-0.10999969,25.80004273,0.07300111
'0:43.125',-0.09995575,-1.01005600,-0.10999969,25.80004273,0.07100108
'0:43.250',-0.09995575,-1.00004242,-0.10999969,25.80004273,0.07300111
'0:43.375',-0.09995575,-1.00004242,-0.10999969,26.00000000,0.07300111
'0:43.500',-0.10997650,-1.00004242,-0.10999969,25.80004273,0.07300111
'0:43.625',-0.09995575,-1.01005600,-0.10999969,26.00000000,0.07100108
'0:43.750',-0.08998535,-1.01005600,-0.10999969,26.00000000,0.07300111
'0:43.875',-0.09995575,-1.01005600,-0.10999969,25.80004273,0.07100108
'0:44.000',-0.09995575,-1.01005600,-0.10999969,25.80004273,0.07100108
'0:44.125',-0.09995575,-1.00004242,-0.10999969,25.80004273,0.07100108
'0:44.250',-0.09995575,-1.00004242,-0.10999969,25.80004273,0.07100108
'0:44.375',-0.09995575,-1.00004242,-0.10999969,26.00000000,0.07100108
'0:44.500',-0.09995575,-1.01005600,-0.10999969,25.80004273,0.07100108
'0:44.625',-0.09995575,-1.01005600,-0.10999969,25.80004273,0.07300111
'0:44.750',-0.09995575,-1.00004242,-0.10999969,25.80004273,0.07300111
'0:44.875',-0.09995575,-1.00004242,-0.10999969,26.00000000,0.07300111
'0:45.000',-0.09995575,-1.01005600,-0.10999969,26.00000000,0.07100108
'0:45.125',-0.10997650,-1.00004242,-0.10999969,26.00000000,0.07100108
'0:45.250',-0.09995575,-1.00004242,-0.10999969,26.00000000,0.07100108
'0:45.375',-0.09995575,-1.00004242,-0.10999969,25.80004273,0.07300111
'0:45.500',-0.09995575,-1.01005600,-0.10999969,26.00000000,0.07300111
'0:45.625',-0.09995575,-1.01005600,-0.10999969,26.00000000,0.07300111
'0:45.750',-0.09995575,-1.00004242,-0.10999969,25.80004273,0.07300111
'0:45.875',-0.10997650,-1.00004242,-0.10999969,26.00000000,0.07100108
'0:46.000',-0.09995575,-1.00004242,-0.10999969,26.00000000,0.07300111
'0:46.125',-0.09995575,-1.00004242,-0.10999969,25.80004273,0.07100108
'0:46.250',-0.09995575,-1.00004242,-0.10999969,26.00000000,0.07300111
'0:46.375',-0.09995575,-1.00004242,-0.10999969,26.00000000,0.07300111
'0:46.500',-0.09995575,-1.01005600,-0.10999969,26.00000000,0.07300111
'0:46.625',-0.09995575,-1.00004242,-0.10999969,26.00000000,0.07300111
'0:46.750',-0.09995575,-1.00004242,-0.10999969,26.00000000,0.07300111
'0:46.875',-0.09995575,-1.00004242,-0.10999969,25.80004273,0.07300111
'0:47.000',-0.09995575,-1.00004242,-0.10999969,26.00000000,0.07100108
'0:47.125',-0.09995575,-1.00004242,-0.10999969,26.00000000,0.07300111
'0:47.250',-0.09995575,-1.00004242,-0.10999969,26.00000000,0.07300111
'0:47.375',-0.09995575,-1.01005600,-0.10999969,26.00000000,0.07300111
'0:47.500',-0.09995575,-1.00004242,-0.10999969,26.00000000,0.07300111
'0:47.625',-0.09995575,-1.00004242,-0.10999969,26.00000000,0.07300111
'0:47.750',-0.09995575,-1.01005600,-0.10999969,26.00000000,0.07300111
'0:47.875',-0.09995575,-1.01005600,-0.10999969,26.00000000,0.07300111
'0:48.000',-0.09995575,-1.00004242,-0.10999969,26.00000000,0.07300111
'0:48.125',-0.08998535,-1.01005600,-0.10999969,26.00000000,0.07300111
'0:48.250',-0.09995575,-1.00004242,-0.10999969,26.00000000,0.07100108
'0:48.375',-0.08998535,-1.00004242,-0.10999969,26.00000000,0.07300111
'0:48.500',-0.09995575,-1.00004242,-0.10999969,26.00000000,0.07300111
'0:48.625',-0.09995575,-1.01005600,-0.10999969,26.00000000,0.07300111
'0:48.750',-0.09995575,-1.00004242,-0.10999969,26.00000000,0.07300111
'0:48.875',-0.09995575,-1.01005600,-0.10999969,26.00000000,0.07300111
'0:49.000',-0.09995575,-1.01005600,-0.10999969,26.00000000,0.07300111
'0:49.125',-0.09995575,-1.00004242,-0.10999969,26.00000000,0.07300111
'0:49.250',-0.09995575,-1.01005600,-0.10999969,26.00000000,0.07300111
'0:49.375',-0.09995575,-1.01005600,-0.10999969,26.00000000,0.07300111
'0:49.500',-0.10997650,-1.00004242,-0.10999969,26.00000000,0.07300111
'0:49.625',-0.08998535,-1.01005600,-0.10999969,26.00000000,0.07300111
'0:49.750',-0.09995575,-1.01005600,-0.10999969,26.00000000,0.07300111
'0:49.875',-0.10997650,-1.00004242,-0.10999969,26.00000000,0.07300111
'0:50.000',-0.09995575,-1.00004242,-0.10999969,26.00000000,0.07300111
'0:50.125',-0.09995575,-1.00004242,-0.10999969,26.00000000,0.07300111
'0:50.250',-0.09995575,-1.01005600,-0.10999969,26.00000000,0.07300111
'0:50.375',-0.09995575,-1.00004242,-0.10999969,26.00000000,0.07300111
'0:50.500',-0.09995575,-1.00004242,-0.10999969,26.00000000,0.07300111
'0:50.625',-0.09995575,-1.00004242,-0.10999969,26.00000000,0.07300111
'0:50.750',-0.09995575,-1.00004242,-0.10999969,26.00000000,0.07300111
'0:50.875',-0.09995575,-1.01005600,-0.10999969,26.00000000,0.07300111
'0:51.000',-0.09995575,-1.01005600,-0.10999969,26.00000000,0.07300111
'0:51.125',-0.09995575,-1.01005600,-0.10999969,26.00000000,0.07300111
'0:51.250',-0.09995575,-1.00004242,-0.10999969,26.00000000,0.07300111
'0:51.375',-0.09995575,-1.01005600,-0.10999969,26.00000000,0.07300111
'0:51.500',-0.09995575,-1.00004242,-0.10999969,26.00000000,0.07300111
'0:51.625',-0.09995575,-1.00004242,-0.10999969,26.00000000,0.07300111
'0:51.750',-0.09995575,-1.00004242,-0.10999969,26.00000000,0.07300111
'0:51.875',-0.09995575,-1.00004242,-0.10999969,26.00000000,0.07300111
'0:52.000',-0.10997650,-1.00004242,-0.10999969,26.00000000,0.07300111
'0:52.125',-0.09995575,-1.00004242,-0.10999969,26.00000000,0.07300111
'0:52.250',-0.09995575,-1.00004242,-0.10999969,26.00000000,0.07300111
'0:52.375',-0.09995575,-1.01005600,-0.10999969,26.00000000,0.07300111
'0:52.500',-0.09995575,-1.00004242,-0.10999969,26.00000000,0.07300111
'0:52.625',-0.09995575,-1.00004242,-0.10999969,26.00000000,0.07300111
'0:52.750',-0.09995575,-1.01005600,-0.10999969,26.00000000,0.07300111
'0:52.875',-0.09995575,-1.00004242,-0.10999969,26.00000000,0.07300111
'0:53.000',-0.09995575,-1.00004242,-0.10999969,26.00000000,0.07300111
'0:53.125',-0.08998535,-1.01005600,-0.10999969,26.00000000,0.07300111
'0:53.250',-0.09995575,-1.00004242,-0.10999969,26.00000000,0.07300111
'0:53.375',-0.09995575,-1.00004242,-0.10999969,26.00000000,0.07300111
'0:53.500',-0.09995575,-1.01005600,-0.10999969,26.00000000,0.07300111
'0:53.625',-0.10997650,-1.00004242,-0.10999969,26.00000000,0.07300111
'0:53.750',-0.09995575,-1.00004242,-0.10999969,26.00000000,0.07300111
'0:53.875',-0.09995575,-1.01005600,-0.10999969,26.00000000,0.07300111
'0:54.000',-0.09995575,-1.00004242,-0.10999969,26.00000000,0.07300111
'0:54.125',-0.09995575,-1.00004242,-0.10999969,26.00000000,0.07300111
'0:54.250',-0.09995575,-1.00004242,-0.10999969,26.00000000,0.07300111
'0:54.375',-0.09995575,-1.01005600,-0.10999969,26.00000000,0.07300111
'0:54.500',-0.09995575,-1.00004242,-0.10999969,26.00000000,0.07300111
'0:54.625',-0.09995575,-1.00004242,-0.10999969,26.00000000,0.07300111
'0:54.750',-0.09995575,-1.00004242,-0.10999969,26.00000000,0.07300111
'0:54.875',-0.10997650,-1.00004242,-0.11996979,26.00000000,0.07300111
'0:55.000',-0.09995575,-1.00004242,-0.10999969,26.00000000,0.07300111
'0:55.125',-0.10997650,-1.00004242,-0.10999969,26.00000000,0.07300111
'0:55.250',-0.09995575,-1.01005600,-0.10999969,26.00000000,0.07300111
'0:55.375',-0.09995575,-1.00004242,-0.10999969,26.00000000,0.07300111
'0:55.500',-0.09995575,-1.01005600,-0.10999969,26.00000000,0.07300111
'0:55.625',-0.10997650,-1.00004242,-0.10999969,26.00000000,0.07300111
'0:55.750',-0.09995575,-1.00004242,-0.10999969,26.20005646,0.07300111
'0:55.875',-0.09995575,-1.00004242,-0.10999969,26.00000000,0.07300111
'0:56.000',-0.09995575,-1.00004242,-0.10999969,26.00000000,0.07300111
'0:56.125',-0.09995575,-1.00004242,-0.10999969,26.00000000,0.07300111
'0:56.250',-0.09995575,-1.00004242,-0.10999969,26.00000000,0.07300111
'0:56.375',-0.09995575,-1.01005600,-0.11996979,26.40001373,0.07300111
'0:56.500',-0.08998535,-1.00004242,-0.11996979,26.20005646,0.07300111
'0:56.625',-0.09995575,-1.01005600,-0.11996979,26.20005646,0.07300111
'0:56.750',-0.09995575,-1.01005600,-0.11996979,26.20005646,0.07300111
'0:56.875',-0.09995575,-1.00004242,-0.10999969,26.00000000,0.07300111
'0:57.000',-0.09995575,-1.00004242,-0.10999969,26.00000000,0.07300111
'0:57.125',-0.09995575,-1.01005600,-0.10999969,26.20005646,0.07300111
'0:57.250',-0.09995575,-1.01005600,-0.10999969,26.20005646,0.07300111
'0:57.375',-0.09995575,-1.00004242,-0.10999969,26.00000000,0.07300111
'0:57.500',-0.09995575,-1.00004242,-0.10999969,26.20005646,0.07300111
'0:57.625',-0.09995575,-1.00004242,-0.10999969,26.20005646,0.07300111
'0:57.750',-0.09995575,-1.00004242,-0.10999969,26.00000000,0.07300111
'0:57.875',-0.09995575,-1.00004242,-0.10999969,26.20005646,0.07300111
'0:58.000',-0.09995575,-1.01005600,-0.10999969,26.00000000,0.07300111
'0:58.125',-0.09995575,-1.00004242,-0.10999969,26.00000000,0.07300111
'0:58.250',-0.09995575,-1.00004242,-0.10999969,26.00000000,0.07500114
'0:58.375',-0.09995575,-1.00004242,-0.10999969,26.20005646,0.07300111
'0:58.500',-0.09995575,-1.01005600,-0.10999969,26.20005646,0.07300111
'0:58.625',-0.10997650,-1.00004242,-0.10999969,26.20005646,0.07300111
'0:58.750',-0.09995575,-1.01005600,-0.10999969,26.20005646,0.07300111
'0:58.875',-0.09995575,-1.00004242,-0.10999969,26.00000000,0.07300111
'0:59.000',-0.09995575,-1.00004242,-0.10999969,26.00000000,0.07300111
'0:59.125',-0.10997650,-1.00004242,-0.10999969,26.20005646,0.07300111
'0:59.250',-0.09995575,-1.00004242,-0.10999969,26.20005646,0.07300111
'0:59.375',-0.09995575,-1.00004242,-0.10999969,26.20005646,0.07300111
'0:59.500',-0.09995575,-1.01005600,-0.10999969,26.20005646,0.07300111
'0:59.625',-0.08998535,-1.01005600,-0.10999969,26.00000000,0.07300111
'0:59.750',-0.09995575,-1.00004242,-0.10999969,26.20005646,0.07300111
'0:59.875',-0.10997650,-1.00004242,-0.10999969,26.20005646,0.07500114
'1:00.000',-0.09995575,-1.00004242,-0.10999969,26.00000000,0.07300111
'1:00.125',-0.09995575,-1.00004242,-0.10999969,26.20005646,0.07300111
'1:00.250',-0.09995575,-1.00004242,-0.10999969,26.20005646,0.07300111
'1:00.375',-0.10997650,-1.00004242,-0.10999969,26.20005646,0.07300111
'1:00.500',-0.10997650,-1.00004242,-0.10999969,26.20005646,0.07300111
'1:00.625',-0.09995575,-1.00004242,-0.10999969,26.20005646,0.07300111
'1:00.750',-0.10997650,-1.00004242,-0.10999969,26.20005646,0.07300111
'1:00.875',-0.09995575,-1.00004242,-0.10999969,26.20005646,0.07300111
'1:01.000',-0.09995575,-1.00004242,-0.10999969,26.20005646,0.07300111
'1:01.125',-0.09995575,-1.00004242,-0.10999969,26.20005646,0.07300111
'1:01.250',-0.09995575,-1.00004242,-0.10999969,26.20005646,0.07300111
'1:01.375',-0.09995575,-1.01005600,-0.10999969,26.20005646,0.07300111
'1:01.500',-0.09995575,-1.01005600,-0.10999969,26.20005646,0.07300111
'1:01.625',-0.09995575,-1.01005600,-0.10999969,26.20005646,0.07300111
'1:01.750',-0.09995575,-1.00004242,-0.11996979,26.20005646,0.07300111
'1:01.875',-0.09995575,-1.00004242,-0.10999969,26.20005646,0.07300111
'1:02.000',-0.09995575,-1.01005600,-0.10999969,26.20005646,0.07300111
'1:02.125',-0.09995575,-1.00004242,-0.10999969,26.20005646,0.07300111
'1:02.250',-0.09995575,-1.00004242,-0.10999969,26.20005646,0.07300111
'1:02.375',-0.09995575,-1.00004242,-0.11996979,26.20005646,0.07300111
'1:02.500',-0.09995575,-1.00004242,-0.10999969,26.20005646,0.07300111
'1:02.625',-0.09995575,-1.01005600,-0.10999969,26.20005646,0.07300111
'1:02.750',-0.10997650,-1.00004242,-0.10999969,26.20005646,0.07300111
'1:02.875',-0.09995575,-1.00004242,-0.10999969,26.20005646,0.07300111
'1:03.000',-0.09995575,-1.00004242,-0.10999969,26.20005646,0.07500114
'1:03.125',-0.10997650,-1.00004242,-0.10999969,26.20005646,0.07500114
'1:03.250',-0.09995575,-1.00004242,-0.10999969,26.20005646,0.07300111
'1:03.375',-0.09995575,-1.00004242,-0.10999969,26.20005646,0.07500114
'1:03.500',-0.09995575,-1.00004242,-0.11996979,26.20005646,0.07300111
'1:03.625',-0.09995575,-1.01005600,-0.10999969,26.20005646,0.07500114
'1:03.750',-0.09995575,-1.00004242,-0.10999969,26.20005646,0.07300111
'1:03.875',-0.10997650,-1.00004242,-0.10999969,26.20005646,0.07300111
'1:04.000',-0.09995575,-1.00004242,-0.10999969,26.20005646,0.07300111
'1:04.125',-0.09995575,-1.00004242,-0.10999969,26.20005646,0.07300111
'1:04.250',-0.09995575,-1.00004242,-0.10999969,26.20005646,0.07300111
'1:04.375',-0.10997650,-1.00004242,-0.10999969,26.20005646,0.07300111
'1:04.500',-0.09995575,-1.00004242,-0.10999969,26.20005646,0.07300111
'1:04.625',-0.09995575,-1.01005600,-0.10999969,26.20005646,0.07300111
'1:04.750',-0.09995575,-1.01005600,-0.10999969,26.20005646,0.07300111
'1:04.875',-0.09995575,-1.00004242,-0.10999969,26.20005646,0.07500114
'1:05.000',-0.09995575,-1.00004242,-0.10999969,26.20005646,0.07300111
'1:05.125',-0.09995575,-1.00004242,-0.10999969,26.20005646,0.07300111
'1:05.250',-0.09995575,-1.00004242,-0.10999969,26.20005646,0.07300111
'1:05.375',-0.09995575,-1.00004242,-0.10999969,26.20005646,0.07300111
'1:05.500',-0.09995575,-1.00004242,-0.10999969,26.20005646,0.07300111
'1:05.625',-0.09995575,-1.00004242,-0.10999969,26.20005646,0.07300111
'1:05.750',-0.09995575,-1.00004242,-0.10999969,26.20005646,0.07300111
'1:05.875',-0.09995575,-1.01005600,-0.10999969,26.20005646,0.07500114
'1:06.000',-0.10997650,-1.00004242,-0.10999969,26.20005646,0.07300111
'1:06.125',-0.10997650,-1.00004242,-0.10999969,26.20005646,0.07300111
'1:06.250',-0.09995575,-1.00004242,-0.10999969,26.20005646,0.07500114
'1:06.375',-0.10997650,-1.00004242,-0.10999969,26.20005646,0.07300111
'1:06.500',-0.09995575,-1.01005600,-0.10999969,26.20005646,0.07500114
'1:06.625',-0.09995575,-1.00004242,-0.10999969,26.20005646,0.07300111
'1:06.750',-0.09995575,-1.00004242,-0.10999969,26.20005646,0.07300111
'1:06.875',-0.09995575,-1.00004242,-0.10999969,26.20005646,0.07300111
'1:07.000',-0.09995575,-1.00004242,-0.10999969,26.20005646,0.07300111
'1:07.125',-0.09995575,-1.00004242,-0.11996979,26.20005646,0.07500114
'1:07.250',-0.09995575,-1.01005600,-0.11996979,26.20005646,0.07500114
'1:07.375',-0.09995575,-1.00004242,-0.10999969,26.20005646,0.07500114
'1:07.500',-0.10997650,-1.00004242,-0.10999969,26.20005646,0.07300111
'1:07.625',-0.10997650,-1.00004242,-0.10999969,26.20005646,0.07500114
'1:07.750',-0.10997650,-1.00004242,-0.10999969,26.20005646,0.07300111
'1:07.875',-0.09995575,-1.00004242,-0.10999969,26.20005646,0.07500114
'1:08.000',-0.10997650,-1.00004242,-0.10999969,26.20005646,0.07300111
'1:08.125',-0.09995575,-1.00004242,-0.10999969,26.20005646,0.07500114
'1:08.250',-0.09995575,-1.00004242,-0.10999969,26.20005646,0.07500114
'1:08.375',-0.09995575,-1.00004242,-0.10999969,26.20005646,0.07500114
'1:08.500',-0.09995575,-1.00004242,-0.10999969,26.20005646,0.07300111
'1:08.625',-0.09995575,-1.00004242,-0.11996979,26.20005646,0.07300111
'1:08.750',-0.09995575,-1.00004242,-0.10999969,26.20005646,0.07300111
'1:08.875',-0.09995575,-1.01005600,-0.10999969,26.20005646,0.07300111
'1:09.000',-0.09995575,-1.00004242,-0.10999969,26.20005646,0.07300111
'1:09.125',-0.09995575,-1.01005600,-0.10999969,26.20005646,0.07300111
'1:09.250',-0.08998535,-1.00004242,-0.10999969,26.40001373,0.07300111
'1:09.375',-0.09995575,-1.00004242,-0.10999969,26.20005646,0.07500114
'1:09.500',-0.09995575,-1.01005600,-0.10999969,26.20005646,0.07300111
'1:09.625',-0.08998535,-1.01005600,-0.10999969,26.20005646,0.07500114
'1:09.750',-0.09995575,-1.01005600,-0.10999969,26.20005646,0.07300111
'1:09.875',-0.09995575,-1.00004242,-0.10999969,26.40001373,0.07500114
'1:10.000',-0.09995575,-1.00004242,-0.10999969,26.20005646,0.07300111
'1:10.125',-0.10997650,-1.00004242,-0.10999969,26.40001373,0.07300111
'1:10.250',-0.10997650,-1.00004242,-0.10999969,26.40001373,0.07300111
'1:10.375',-0.11999725,-1.00004242,-0.10999969,26.20005646,0.07500114
'1:10.500',-0.10997650,-1.00004242,-0.10999969,26.20005646,0.07300111
'1:10.625',-0.10997650,-1.00004242,-0.10999969,26.40001373,0.07300111
'1:10.750',-0.10997650,-1.00004242,-0.10999969,26.40001373,0.07300111
'1:10.875',-0.10997650,-1.00004242,-0.10999969,26.20005646,0.07300111
'1:11.000',-0.10997650,-1.00004242,-0.10999969,26.20005646,0.07300111
'1:11.125',-0.10997650,-1.00004242,-0.10999969,26.20005646,0.07300111
'1:11.250',-0.10997650,-1.00004242,-0.10999969,26.40001373,0.07500114
'1:11.375',-0.10997650,-1.00004242,-0.10999969,26.20005646,0.07300111
'1:11.500',-0.10997650,-1.00004242,-0.10999969,26.20005646,0.07300111
'1:11.625',-0.10997650,-1.00004242,-0.10999969,26.20005646,0.07500114
'1:11.750',-0.10997650,-1.00004242,-0.10999969,26.40001373,0.07300111
'1:11.875',-0.11999725,-1.00004242,-0.10999969,26.40001373,0.07500114
'1:12.000',-0.10997650,-1.00004242,-0.10999969,26.40001373,0.07500114
'1:12.125',-0.11999725,-1.00004242,-0.10999969,26.20005646,0.07500114
'1:12.250',-0.11999725,-1.00004242,-0.10999969,26.40001373,0.07300111
'1:12.375',-0.10997650,-1.00004242,-0.11996979,26.40001373,0.07300111
'1:12.500',-0.09995575,-1.00004242,-0.10999969,26.40001373,0.07300111
'1:12.625',-0.10997650,-1.00004242,-0.10999969,26.40001373,0.07500114
'1:12.750',-0.10997650,-1.01005600,-0.10999969,26.20005646,0.07500114
'1:12.875',-0.08998535,-1.01005600,-0.10999969,26.40001373,0.07500114
'1:13.000',-0.08998535,-1.01005600,-0.10999969,26.40001373,0.07300111
'1:13.125',-0.08998535,-1.01005600,-0.10999969,26.40001373,0.07300111
'1:13.250',-0.08998535,-1.00004242,-0.10999969,26.40001373,0.07300111
'1:13.375',-0.08998535,-1.01005600,-0.10999969,26.40001373,0.07300111
'1:13.500',-0.08998535,-1.00004242,-0.10999969,26.40001373,0.07500114
'1:13.625',-0.05997345,-1.01005600,-0.10999969,26.40001373,0.07500114
'1:13.750',-0.00997040,-1.03001007,-0.10999969,26.40001373,0.07300111
'1:13.875',0.02004151,-1.03001007,-0.09997482,26.40001373,0.07300111
'1:14.000',0.11002686,-1.05003723,-0.09997482,26.40001373,0.07300111
'1:14.125',0.14003876,-1.05003723,-0.09997482,26.40001373,0.07300111
'1:14.250',0.15000916,-1.05003723,-0.09997482,26.40001373,0.07500114
'1:14.375',0.14003876,-1.04002365,-0.09997482,26.40001373,0.07700117
'1:14.500',0.15000916,-1.05003723,-0.09997482,26.40001373,0.07500114
'1:14.625',0.15000916,-1.05003723,-0.09997482,26.40001373,0.07500114
'1:14.750',0.15000916,-1.05003723,-0.09997482,26.40001373,0.07500114
'1:14.875',0.15000916,-1.05003723,-0.09997482,26.40001373,0.07500114
'1:15.000',0.16002991,-1.05003723,-0.09997482,26.40001373,0.07300111
'1:15.125',0.15000916,-1.05003723,-0.09997482,26.40001373,0.07300111
'1:15.250',0.16002991,-1.05003723,-0.09997482,26.40001373,0.07300111
'1:15.375',0.16002991,-1.05003723,-0.09997482,26.40001373,0.07500114
'1:15.500',0.15000916,-1.05003723,-0.09997482,26.40001373,0.07300111
'1:15.625',0.15000916,-1.04002365,-0.09997482,26.40001373,0.07500114
'1:15.750',0.16002991,-1.05003723,-0.09997482,26.40001373,0.07500114
'1:15.875',0.16002991,-1.05003723,-0.09997482,26.40001373,0.07300111
'1:16.000',0.16002991,-1.04002365,-0.09997482,26.40001373,0.07300111
'1:16.125',0.15000916,-1.05003723,-0.09997482,26.40001373,0.07500114
'1:16.250',0.16002991,-1.05003723,-0.09997482,26.40001373,0.07500114
'1:16.375',0.16002991,-1.05003723,-0.09997482,26.40001373,0.07500114
'1:16.500',0.16002991,-1.05003723,-0.09997482,26.40001373,0.07300111
'1:16.625',0.16002991,-1.05003723,-0.09997482,26.40001373,0.07500114
'1:16.750',0.16002991,-1.05003723,-0.09997482,26.40001373,0.07300111
'1:16.875',0.16002991,-1.05003723,-0.09997482,26.40001373,0.07300111
'1:17.000',0.16002991,-1.05003723,-0.09997482,26.40001373,0.07300111
'1:17.125',0.16002991,-1.05003723,-0.09997482,26.40001373,0.07500114
'1:17.250',0.16002991,-1.05003723,-0.09997482,26.40001373,0.07500114
'1:17.375',0.16002991,-1.05003723,-0.09997482,26.40001373,0.07500114
'1:17.500',0.17000031,-1.04002365,-0.09997482,26.40001373,0.07500114
'1:17.625',0.16002991,-1.05003723,-0.09997482,26.40001373,0.07500114
'1:17.750',0.15000916,-1.05003723,-0.09997482,26.40001373,0.07500114
'1:17.875',0.16002991,-1.05003723,-0.09997482,26.40001373,0.07300111
'1:18.000',0.16002991,-1.05003723,-0.09997482,26.40001373,0.07500114
'1:18.125',0.16002991,-1.05003723,-0.09997482,26.40001373,0.07500114
'1:18.250',0.16002991,-1.05003723,-0.09997482,26.40001373,0.07500114
'1:18.375',0.16002991,-1.05003723,-0.09997482,26.40001373,0.07500114
'1:18.500',0.16002991,-1.05003723,-0.09997482,26.40001373,0.07500114
'1:18.625',0.16002991,-1.05003723,-0.09997482,26.40001373,0.07300111
'1:18.750',0.16002991,-1.05003723,-0.09997482,26.40001373,0.07300111
'1:18.875',0.16002991,-1.05003723,-0.09997482,26.40001373,0.07300111
'1:19.000',0.16002991,-1.05003723,-0.09997482,26.40001373,0.07500114
'1:19.125',0.16002991,-1.05003723,-0.09997482,26.40001373,0.07500114
'1:19.250',0.16002991,-1.04002365,-0.09997482,26.40001373,0.07500114
'1:19.375',0.17000031,-1.05003723,-0.09997482,26.40001373,0.07300111
'1:19.500',0.16002991,-1.05003723,-0.09997482,26.40001373,0.07500114
'1:19.625',0.16002991,-1.05003723,-0.09997482,26.40001373,0.07500114
'1:19.750',0.16002991,-1.05003723,-0.09997482,26.40001373,0.07300111
'1:19.875',0.17000031,-1.05003723,-0.09997482,26.40001373,0.07300111
'1:20.000',0.16002991,-1.05003723,-0.09997482,26.40001373,0.07500114
'1:20.125',0.15000916,-1.05003723,-0.09997482,26.40001373,0.07500114
'1:20.250',0.17000031,-1.05003723,-0.09997482,26.40001373,0.07500114
'1:20.375',0.17000031,-1.05003723,-0.09997482,26.40001373,0.07500114
'1:20.500',0.16002991,-1.05003723,-0.09997482,26.60007019,0.07500114
'1:20.625',0.16002991,-1.05003723,-0.09997482,26.40001373,0.07500114
'1:20.750',0.16002991,-1.05003723,-0.09997482,26.40001373,0.07500114
'1:20.875',0.16002991,-1.05003723,-0.09997482,26.60007019,0.07500114
'1:21.000',0.16002991,-1.05003723,-0.09997482,26.40001373,0.07500114
'1:21.125',0.17000031,-1.05003723,-0.09997482,26.40001373,0.07500114
'1:21.250',0.16002991,-1.05003723,-0.09997482,26.40001373,0.07500114
'1:21.375',0.16002991,-1.05003723,-0.09997482,26.60007019,0.07500114
'1:21.500',0.16002991,-1.05003723,-0.09997482,26.40001373,0.07500114
'1:21.625',0.17000031,-1.05003723,-0.09997482,26.40001373,0.07500114
'1:21.750',0.16002991,-1.05003723,-0.09997482,26.40001373,0.07500114
'1:21.875',0.17000031,-1.05003723,-0.09997482,26.40001373,0.07500114
'1:22.000',0.17000031,-1.05003723,-0.09997482,26.40001373,0.07500114
'1:22.125',0.16002991,-1.05003723,-0.09997482,26.40001373,0.07500114
'1:22.250',0.16002991,-1.05003723,-0.09997482,26.40001373,0.07300111
'1:22.375',0.17000031,-1.05003723,-0.09997482,26.60007019,0.07500114
'1:22.500',0.17000031,-1.05003723,-0.09997482,26.40001373,0.07700117
'1:22.625',0.17000031,-1.05003723,-0.09997482,26.40001373,0.07500114
'1:22.750',0.17000031,-1.05003723,-0.09997482,26.60007019,0.07300111
'1:22.875',0.17000031,-1.05003723,-0.09997482,26.40001373,0.07500114
'1:23.000',0.17000031,-1.05003723,-0.09997482,26.60007019,0.07500114
'1:23.125',0.17000031,-1.05003723,-0.09997482,26.60007019,0.07500114
'1:23.250',0.17000031,-1.05003723,-0.09997482,26.60007019,0.07500114
'1:23.375',0.17000031,-1.05003723,-0.09997482,26.40001373,0.07700117
'1:23.500',0.17000031,-1.05003723,-0.09997482,26.60007019,0.07500114
'1:23.625',0.17000031,-1.05003723,-0.09997482,26.60007019,0.07500114
'1:23.750',0.16002991,-1.05003723,-0.09997482,26.40001373,0.07500114
'1:23.875',0.16002991,-1.05003723,-0.09997482,26.60007019,0.07500114
'1:24.000',0.16002991,-1.05003723,-0.09997482,26.60007019,0.07700117
'1:24.125',0.17000031,-1.05003723,-0.09997482,26.40001373,0.07500114
'1:24.250',0.17000031,-1.05003723,-0.09997482,26.60007019,0.07300111
'1:24.375',0.17000031,-1.05003723,-0.09997482,26.60007019,0.07500114
'1:24.500',0.17000031,-1.05003723,-0.09997482,26.60007019,0.07500114
'1:24.625',0.16002991,-1.05003723,-0.09997482,26.40001373,0.07500114
'1:24.750',0.17000031,-1.05003723,-0.09997482,26.60007019,0.07500114
'1:24.875',0.17000031,-1.05003723,-0.09997482,26.60007019,0.07500114
'1:25.000',0.18002106,-1.05003723,-0.09997482,26.40001373,0.07500114
'1:25.125',0.16002991,-1.05003723,-0.09997482,26.60007019,0.07700117
'1:25.250',0.17000031,-1.05003723,-0.09997482,26.60007019,0.07500114
'1:25.375',0.17000031,-1.05003723,-0.09997482,26.60007019,0.07500114
'1:25.500',0.17000031,-1.05003723,-0.09997482,26.60007019,0.07300111
'1:25.625',0.17000031,-1.05003723,-0.09997482,26.60007019,0.07500114
'1:25.750',0.17000031,-1.05003723,-0.09997482,26.60007019,0.07700117
'1:25.875',0.17000031,-1.05003723,-0.09997482,26.60007019,0.07500114
'1:26.000',0.17000031,-1.05003723,-0.09997482,26.60007019,0.07500114
'1:26.125',0.17000031,-1.05003723,-0.09997482,26.60007019,0.07500114
'1:26.250',0.16002991,-1.05003723,-0.09997482,26.40001373,0.07700117
'1:26.375',0.17000031,-1.05003723,-0.09997482,26.60007019,0.07700117
'1:26.500',0.17000031,-1.05003723,-0.09997482,26.60007019,0.07500114
'1:26.625',0.17000031,-1.05003723,-0.09997482,26.60007019,0.07500114
'1:26.750',0.16002991,-1.05003723,-0.09997482,26.60007019,0.07500114
'1:26.875',0.17000031,-1.05003723,-0.08994995,26.60007019,0.07700117
'1:27.000',0.16002991,-1.05003723,-0.09997482,26.60007019,0.07500114
'1:27.125',0.17000031,-1.05003723,-0.09997482,26.60007019,0.07500114
'1:27.250',0.16002991,-1.05003723,-0.09997482,26.60007019,0.07700117
'1:27.375',0.17000031,-1.05003723,-0.09997482,26.60007019,0.07500114
'1:27.500',0.18002106,-1.05003723,-0.09997482,26.60007019,0.07500114
'1:27.625',0.17000031,-1.05003723,-0.09997482,26.60007019,0.07500114
'1:27.750',0.17000031,-1.05003723,-0.09997482,26.60007019,0.07700117
'1:27.875',0.17000031,-1.05003723,-0.09997482,26.60007019,0.07700117
'1:28.000',0.17000031,-1.05003723,-0.09997482,26.60007019,0.07700117
'1:28.125',0.17000031,-1.05003723,-0.09997482,26.60007019,0.07500114
'1:28.250',0.18002106,-1.05003723,-0.09997482,26.60007019,0.07700117
'1:28.375',0.18002106,-1.05003723,-0.09997482,26.60007019,0.07500114
'1:28.500',0.16002991,-1.05003723,-0.09997482,26.60007019,0.07700117
'1:28.625',0.17000031,-1.05003723,-0.09997482,26.60007019,0.07500114
'1:28.750',0.17000031,-1.05003723,-0.09997482,26.60007019,0.07500114
'1:28.875',0.17000031,-1.05003723,-0.09997482,26.60007019,0.07700117
'1:29.000',0.17000031,-1.04002365,-0.09997482,26.60007019,0.07700117
'1:29.125',0.17000031,-1.05003723,-0.09997482,26.60007019,0.07500114
'1:29.250',0.17000031,-1.05003723,-0.09997482,26.60007019,0.07700117
'1:29.375',0.17000031,-1.05003723,-0.09997482,26.60007019,0.07500114
'1:29.500',0.17000031,-1.05003723,-0.09997482,26.60007019,0.07700117
'1:29.625',0.18002106,-1.05003723,-0.09997482,26.60007019,0.07700117
'1:29.750',0.18002106,-1.05003723,-0.09997482,26.60007019,0.07500114
'1:29.875',0.18002106,-1.05003723,-0.09997482,26.60007019,0.07700117
'1:30.000',0.17000031,-1.05003723,-0.09997482,26.60007019,0.07700117
'1:30.125',0.18002106,-1.05003723,-0.09997482,26.60007019,0.07700117
'1:30.250',0.17000031,-1.05003723,-0.09997482,26.60007019,0.07700117
'1:30.375',0.17000031,-1.05003723,-0.09997482,26.60007019,0.07500114
'1:30.500',0.18002106,-1.05003723,-0.09997482,26.60007019,0.07700117
'1:30.625',0.17000031,-1.05003723,-0.09997482,26.60007019,0.07700117
'1:30.750',0.17000031,-1.05003723,-0.09997482,26.60007019,0.07700117
'1:30.875',0.18002106,-1.04002365,-0.09997482,26.60007019,0.07700117
'1:31.000',0.17000031,-1.05003723,-0.09997482,26.60007019,0.07700117
'1:31.125',0.17000031,-1.05003723,-0.09997482,26.60007019,0.07700117
'1:31.250',0.17000031,-1.05003723,-0.09997482,26.60007019,0.07500114
'1:31.375',0.18002106,-1.05003723,-0.09997482,26.60007019,0.07700117
'1:31.500',0.17000031,-1.05003723,-0.09997482,26.60007019,0.07700117
'1:31.625',0.18002106,-1.05003723,-0.09997482,26.60007019,0.07500114
'1:31.750',0.17000031,-1.05003723,-0.09997482,26.60007019,0.07700117
'1:31.875',0.16002991,-1.04002365,-0.09997482,26.60007019,0.07700117
'1:32.000',0.17000031,-1.05003723,-0.09997482,26.60007019,0.07500114
'1:32.125',0.18002106,-1.05003723,-0.09997482,26.60007019,0.07500114
'1:32.250',0.18002106,-1.05003723,-0.09997482,26.60007019,0.07700117
'1:32.375',0.18002106,-1.05003723,-0.09997482,26.60007019,0.07500114
'1:32.500',0.18002106,-1.05003723,-0.09997482,26.60007019,0.07700117
'1:32.625',0.16002991,-1.05003723,-0.09997482,26.60007019,0.07500114
'1:32.750',0.17000031,-1.05003723,-0.09997482,26.60007019,0.07700117
'1:32.875',0.18002106,-1.05003723,-0.09997482,26.60007019,0.07700117
'1:33.000',0.17000031,-1.05003723,-0.09997482,26.60007019,0.07700117
'1:33.125',0.17000031,-1.05003723,-0.09997482,26.60007019,0.07700117
'1:33.250',0.17000031,-1.05003723,-0.09997482,26.60007019,0.07700117
'1:33.375',0.17000031,-1.05003723,-0.09997482,26.60007019,0.07700117
'1:33.500',0.18002106,-1.05003723,-0.09997482,26.60007019,0.07500114
'1:33.625',0.17000031,-1.05003723,-0.09997482,26.60007019,0.07700117
'1:33.750',0.16002991,-1.05003723,-0.09997482,26.60007019,0.07700117
'1:33.875',0.17000031,-1.05003723,-0.09997482,26.60007019,0.07500114
'1:34.000',0.18002106,-1.05003723,-0.09997482,26.60007019,0.07700117
'1:34.125',0.18002106,-1.05003723,-0.09997482,26.60007019,0.07500114
'1:34.250',0.17000031,-1.05003723,-0.09997482,26.60007019,0.07700117
'1:34.375',0.18002106,-1.05003723,-0.09997482,26.60007019,0.07700117
'1:34.500',0.17000031,-1.05003723,-0.09997482,26.60007019,0.07500114
'1:34.625',0.17000031,-1.05003723,-0.09997482,26.60007019,0.07700117
'1:34.750',0.17000031,-1.05003723,-0.09997482,26.60007019,0.07700117
'1:34.875',0.18002106,-1.05003723,-0.09997482,26.60007019,0.07700117
'1:35.000',0.18002106,-1.05003723,-0.09997482,26.60007019,0.07700117
'1:35.125',0.17000031,-1.04002365,-0.09997482,26.80002747,0.07700117
'1:35.250',0.18002106,-1.05003723,-0.09997482,26.60007019,0.07700117
'1:35.375',0.17000031,-1.04002365,-0.09997482,26.60007019,0.07700117
'1:35.500',0.17000031,-1.05003723,-0.09997482,26.60007019,0.07500114
'1:35.625',0.18002106,-1.05003723,-0.09997482,26.60007019,0.07700117
'1:35.750',0.17000031,-1.05003723,-0.09997482,26.60007019,0.07700117
'1:35.875',0.18002106,-1.05003723,-0.09997482,26.60007019,0.07700117
'1:36.000',0.18002106,-1.05003723,-0.09997482,26.60007019,0.07500114
'1:36.125',0.17000031,-1.05003723,-0.09997482,26.60007019,0.07700117
'1:36.250',0.17000031,-1.05003723,-0.09997482,26.60007019,0.07700117
'1:36.375',0.17000031,-1.05003723,-0.09997482,26.60007019,0.07700117
'1:36.500',0.18002106,-1.04002365,-0.09997482,26.60007019,0.07700117
'1:36.625',0.18002106,-1.04002365,-0.09997482,26.60007019,0.07500114
'1:36.750',0.18002106,-1.05003723,-0.09997482,26.80002747,0.07700117
'1:36.875',0.17000031,-1.04002365,-0.09997482,26.60007019,0.07700117
'1:37.000',0.17000031,-1.05003723,-0.09997482,26.60007019,0.07700117
'1:37.125',0.17000031,-1.05003723,-0.09997482,26.60007019,0.07700117
'1:37.250',0.18002106,-1.05003723,-0.09997482,26.60007019,0.07700117
'1:37.375',0.17000031,-1.05003723,-0.09997482,26.60007019,0.07700117
'1:37.500',0.17000031,-1.05003723,-0.09997482,26.80002747,0.07700117
'1:37.625',0.18002106,-1.05003723,-0.09997482,26.80002747,0.07700117
'1:37.750',0.18002106,-1.05003723,-0.09997482,26.80002747,0.07700117
'1:37.875',0.17000031,-1.05003723,-0.09997482,26.80002747,0.07700117
'1:38.000',0.17000031,-1.05003723,-0.09997482,26.60007019,0.07700117
'1:38.125',0.17000031,-1.05003723,-0.09997482,26.80002747,0.07700117
'1:38.250',0.17000031,-1.05003723,-0.09997482,26.80002747,0.07700117
'1:38.375',0.18002106,-1.05003723,-0.09997482,26.80002747,0.07700117
'1:38.500',0.17000031,-1.05003723,-0.09997482,26.80002747,0.07700117
'1:38.625',0.17000031,-1.05003723,-0.09997482,26.80002747,0.07700117
'1:38.750',0.17000031,-1.05003723,-0.09997482,26.80002747,0.07700117
'1:38.875',0.17000031,-1.05003723,-0.09997482,26.80002747,0.07700117
'1:39.000',0.17000031,-1.04002365,-0.09997482,26.60007019,0.07700117
'1:39.125',0.18002106,-1.05003723,-0.09997482,26.80002747,0.07700117
'1:39.250',0.18002106,-1.05003723,-0.09997482,26.60007019,0.07700117
'1:39.375',0.17000031,-1.04002365,-0.09997482,26.60007019,0.07700117
'1:39.500',0.17000031,-1.05003723,-0.09997482,26.60007019,0.07700117
'1:39.625',0.18002106,-1.05003723,-0.09997482,26.80002747,0.07700117
'1:39.750',0.17000031,-1.05003723,-0.09997482,26.80002747,0.07700117
'1:39.875',0.18002106,-1.05003723,-0.09997482,26.80002747,0.07700117
'1:40.000',0.17000031,-1.05003723,-0.09997482,26.80002747,0.07700117
'1:40.125',0.17000031,-1.05003723,-0.09997482,26.80002747,0.07700117
'1:40.250',0.18002106,-1.05003723,-0.09997482,26.80002747,0.07700117
'1:40.375',0.18002106,-1.05003723,-0.09997482,26.80002747,0.07700117
'1:40.500',0.18002106,-1.05003723,-0.09997482,26.80002747,0.07700117
'1:40.625',0.18002106,-1.05003723,-0.09997482,26.80002747,0.07700117
'1:40.750',0.18002106,-1.05003723,-0.09997482,26.80002747,0.07700117
'1:40.875',0.17000031,-1.05003723,-0.09997482,26.80002747,0.07700117
'1:41.000',0.17000031,-1.05003723,-0.09997482,26.80002747,0.07700117
'1:41.125',0.17000031,-1.05003723,-0.09997482,26.80002747,0.07700117
'1:41.250',0.18002106,-1.05003723,-0.09997482,26.80002747,0.07700117
'1:41.375',0.17000031,-1.05003723,-0.09997482,26.80002747,0.07700117
'1:41.500',0.18002106,-1.05003723,-0.09997482,26.80002747,0.07700117
'1:41.625',0.18002106,-1.05003723,-0.09997482,26.80002747,0.07700117
'1:41.750',0.18002106,-1.05003723,-0.09997482,26.80002747,0.07700117
'1:41.875',0.17000031,-1.05003723,-0.09997482,26.80002747,0.07700117
'1:42.000',0.17000031,-1.05003723,-0.09997482,26.80002747,0.07700117
'1:42.125',0.18002106,-1.05003723,-0.09997482,26.80002747,0.07700117
'1:42.250',0.17000031,-1.05003723,-0.09997482,26.80002747,0.07700117
'1:42.375',0.17000031,-1.05003723,-0.09997482,26.80002747,0.07700117
'1:42.500',0.18002106,-1.05003723,-0.09997482,26.80002747,0.07700117
'1:42.625',0.18002106,-1.05003723,-0.09997482,26.80002747,0.07700117
'1:42.750',0.18002106,-1.05003723,-0.09997482,26.80002747,0.07700117
'1:42.875',0.18002106,-1.05003723,-0.09997482,26.80002747,0.07700117
'1:43.000',0.18002106,-1.05003723,-0.09997482,26.60007019,0.07700117
'1:43.125',0.18002106,-1.05003723,-0.09997482,26.80002747,0.07700117
'1:43.250',0.17000031,-1.05003723,-0.09997482,26.80002747,0.07700117
'1:43.375',0.18002106,-1.05003723,-0.09997482,26.80002747,0.07700117
'1:43.500',0.18002106,-1.05003723,-0.09997482,26.80002747,0.07700117
'1:43.625',0.17000031,-1.04002365,-0.09997482,26.80002747,0.07700117
'1:43.750',0.18002106,-1.05003723,-0.09997482,26.80002747,0.07700117
'1:43.875',0.18002106,-1.05003723,-0.09997482,26.80002747,0.07700117
'1:44.000',0.17000031,-1.05003723,-0.09997482,26.80002747,0.07700117
'1:44.125',0.18002106,-1.05003723,-0.09997482,26.80002747,0.07700117
'1:44.250',0.18002106,-1.05003723,-0.09997482,26.80002747,0.07700117
'1:44.375',0.18002106,-1.05003723,-0.09997482,26.80002747,0.07700117
'1:44.500',0.18002106,-1.05003723,-0.09997482,26.80002747,0.07700117
'1:44.625',0.18002106,-1.05003723,-0.09997482,26.80002747,0.07700117
'1:44.750',0.17000031,-1.05003723,-0.09997482,26.80002747,0.07700117
'1:44.875',0.18002106,-1.05003723,-0.09997482,26.80002747,0.07700117
'1:45.000',0.18002106,-1.04002365,-0.09997482,26.80002747,0.07700117
'1:45.125',0.18002106,-1.05003723,-0.09997482,26.80002747,0.07700117
'1:45.250',0.18002106,-1.05003723,-0.09997482,26.80002747,0.07700117
'1:45.375',0.18002106,-1.05003723,-0.09997482,26.80002747,0.07700117
'1:45.500',0.18002106,-1.05003723,-0.09997482,26.80002747,0.07700117
'1:45.625',0.18002106,-1.05003723,-0.09997482,26.80002747,0.07700117
'1:45.750',0.17000031,-1.05003723,-0.09997482,26.80002747,0.07700117
'1:45.875',0.18002106,-1.04002365,-0.09997482,26.80002747,0.07700117
'1:46.000',0.18002106,-1.05003723,-0.09997482,26.80002747,0.07700117
'1:46.125',0.18002106,-1.05003723,-0.09997482,26.80002747,0.07700117
'1:46.250',0.17000031,-1.05003723,-0.09997482,26.80002747,0.07700117
'1:46.375',0.18002106,-1.05003723,-0.09997482,26.80002747,0.07700117
'1:46.500',0.17000031,-1.04002365,-0.09997482,26.80002747,0.07700117
'1:46.625',0.17000031,-1.05003723,-0.09997482,26.80002747,0.07700117
'1:46.750',0.18002106,-1.05003723,-0.09997482,26.80002747,0.07700117
'1:46.875',0.18002106,-1.05003723,-0.09997482,26.80002747,0.07700117
'1:47.000',0.18002106,-1.05003723,-0.09997482,26.80002747,0.07700117
'1:47.125',0.18002106,-1.05003723,-0.10999969,26.80002747,0.07700117
'1:47.250',0.18002106,-1.05003723,-0.09997482,26.80002747,0.07700117
'1:47.375',0.18002106,-1.05003723,-0.09997482,26.80002747,0.07700117
'1:47.500',0.18002106,-1.05003723,-0.09997482,26.80002747,0.07700117
'1:47.625',0.18002106,-1.05003723,-0.09997482,26.80002747,0.07700117
'1:47.750',0.18002106,-1.05003723,-0.09997482,26.80002747,0.07700117
'1:47.875',0.18002106,-1.05003723,-0.09997482,26.80002747,0.07700117
'1:48.000',0.18002106,-1.05003723,-0.09997482,26.80002747,0.07700117
'1:48.125',0.17000031,-1.05003723,-0.09997482,26.80002747,0.07700117
'1:48.250',0.18002106,-1.05003723,-0.09997482,26.80002747,0.07700117
'1:48.375',0.18002106,-1.05003723,-0.09997482,26.80002747,0.07700117
'1:48.500',0.18002106,-1.05003723,-0.09997482,26.80002747,0.07700117
'1:48.625',0.18002106,-1.05003723,-0.09997482,26.80002747,0.07700117
'1:48.750',0.17000031,-1.05003723,-0.09997482,26.80002747,0.07700117
'1:48.875',0.19004181,-1.05003723,-0.09997482,26.80002747,0.07700117
'1:49.000',0.17000031,-1.05003723,-0.09997482,26.80002747,0.07700117
'1:49.125',0.18002106,-1.05003723,-0.09997482,26.80002747,0.07700117
'1:49.250',0.18002106,-1.05003723,-0.09997482,26.80002747,0.07700117
'1:49.375',0.17000031,-1.05003723,-0.09997482,26.80002747,0.07700117
'1:49.500',0.17000031,-1.05003723,-0.09997482,26.80002747,0.07700117
'1:49.625',0.18002106,-1.05003723,-0.09997482,26.80002747,0.07700117
'1:49.750',0.18002106,-1.05003723,-0.09997482,26.80002747,0.07700117
'1:49.875',0.18002106,-1.05003723,-0.09997482,26.80002747,0.07700117
'1:50.000',0.18002106,-1.05003723,-0.09997482,26.80002747,0.07700117
'1:50.125',0.18002106,-1.05003723,-0.09997482,26.80002747,0.07700117
'1:50.250',0.18002106,-1.05003723,-0.09997482,26.80002747,0.07700117
'1:50.375',0.18002106,-1.04002365,-0.09997482,26.80002747,0.07700117
'1:50.500',0.18002106,-1.05003723,-0.09997482,26.80002747,0.07700117
'1:50.625',0.18002106,-1.05003723,-0.09997482,26.80002747,0.07700117
'1:50.750',0.18002106,-1.05003723,-0.09997482,26.80002747,0.07700117
'1:50.875',0.18002106,-1.05003723,-0.09997482,26.80002747,0.07700117
'1:51.000',0.18002106,-1.04002365,-0.09997482,26.80002747,0.07700117
'1:51.125',0.18002106,-1.04002365,-0.09997482,26.80002747,0.07700117
'1:51.250',0.18002106,-1.05003723,-0.09997482,26.80002747,0.07700117
'1:51.375',0.18002106,-1.05003723,-0.09997482,26.80002747,0.07700117
'1:51.500',0.18002106,-1.05003723,-0.09997482,26.80002747,0.07700117
'1:51.625',0.18002106,-1.05003723,-0.09997482,26.80002747,0.07700117
'1:51.750',0.17000031,-1.05003723,-0.09997482,26.80002747,0.07700117
'1:51.875',0.18002106,-1.05003723,-0.09997482,26.80002747,0.07700117
'1:52.000',0.18002106,-1.05003723,-0.09997482,26.80002747,0.07700117
'1:52.125',0.18002106,-1.05003723,-0.09997482,26.80002747,0.07700117
'1:52.250',0.17000031,-1.05003723,-0.09997482,26.80002747,0.07700117
'1:52.375',0.18002106,-1.05003723,-0.09997482,27.00008393,0.07700117
'1:52.500',0.18002106,-1.05003723,-0.09997482,26.80002747,0.07700117
'1:52.625',0.18002106,-1.05003723,-0.09997482,26.80002747,0.07700117
'1:52.750',0.18002106,-1.05003723,-0.09997482,27.00008393,0.07700117
'1:52.875',0.17000031,-1.05003723,-0.09997482,26.80002747,0.07700117
'1:53.000',0.18002106,-1.05003723,-0.09997482,26.80002747,0.07700117
'1:53.125',0.18002106,-1.05003723,-0.09997482,26.80002747,0.07700117
'1:53.250',0.18002106,-1.05003723,-0.09997482,27.00008393,0.07700117
'1:53.375',0.17000031,-1.05003723,-0.09997482,26.80002747,0.07700117
'1:53.500',0.17000031,-1.05003723,-0.09997482,27.00008393,0.07700117
'1:53.625',0.18002106,-1.05003723,-0.09997482,26.80002747,0.07700117
'1:53.750',0.18002106,-1.05003723,-0.09997482,27.00008393,0.07700117
'1:53.875',0.18002106,-1.05003723,-0.09997482,26.80002747,0.07700117
'1:54.000',0.17000031,-1.05003723,-0.09997482,26.80002747,0.07700117
'1:54.125',0.17000031,-1.05003723,-0.09997482,26.80002747,0.07700117
'1:54.250',0.17000031,-1.05003723,-0.09997482,26.80002747,0.07700117
'1:54.375',0.18002106,-1.05003723,-0.09997482,26.80002747,0.07700117
'1:54.500',0.17000031,-1.05003723,-0.09997482,26.80002747,0.07700117
'1:54.625',0.17000031,-1.05003723,-0.09997482,26.80002747,0.07700117
'1:54.750',0.17000031,-1.05003723,-0.09997482,26.80002747,0.07700117
'1:54.875',0.18002106,-1.05003723,-0.09997482,27.00008393,0.07700117
'1:55.000',0.17000031,-1.05003723,-0.09997482,27.00008393,0.07700117
'1:55.125',0.18002106,-1.05003723,-0.09997482,26.80002747,0.07700117
'1:55.250',0.18002106,-1.05003723,-0.09997482,27.00008393,0.07700117
'1:55.375',0.18002106,-1.05003723,-0.09997482,27.00008393,0.07700117
'1:55.500',0.18002106,-1.05003723,-0.09997482,26.80002747,0.07700117
'1:55.625',0.18002106,-1.05003723,-0.09997482,26.80002747,0.07700117
'1:55.750',0.18002106,-1.05003723,-0.09997482,27.00008393,0.07700117
'1:55.875',0.18002106,-1.05003723,-0.09997482,27.00008393,0.07700117
'1:56.000',0.17000031,-1.05003723,-0.09997482,27.00008393,0.07700117
'1:56.125',0.17000031,-1.05003723,-0.09997482,26.80002747,0.07700117
'1:56.250',0.18002106,-1.05003723,-0.09997482,27.00008393,0.07700117
'1:56.375',0.18002106,-1.05003723,-0.09997482,27.00008393,0.07700117
'1:56.500',0.18002106,-1.04002365,-0.09997482,27.00008393,0.07700117
'1:56.625',0.18002106,-1.05003723,-0.09997482,27.00008393,0.07700117
'1:56.750',0.18002106,-1.05003723,-0.09997482,27.00008393,0.07700117
'1:56.875',0.18002106,-1.05003723,-0.09997482,26.80002747,0.07700117
'1:57.000',0.18002106,-1.05003723,-0.09997482,26.80002747,0.07700117
'1:57.125',0.18002106,-1.05003723,-0.09997482,27.00008393,0.07700117
'1:57.250',0.17000031,-1.05003723,-0.09997482,27.00008393,0.07700117
'1:57.375',0.18002106,-1.05003723,-0.09997482,27.00008393,0.07700117
'1:57.500',0.18002106,-1.05003723,-0.09997482,27.00008393,0.07700117
'1:57.625',0.17000031,-1.05003723,-0.09997482,27.00008393,0.07700117
'1:57.750',0.17000031,-1.05003723,-0.09997482,27.00008393,0.07700117
'1:57.875',0.18002106,-1.05003723,-0.09997482,27.00008393,0.07700117
'1:58.000',0.18002106,-1.05003723,-0.09997482,27.00008393,0.07700117
'1:58.125',0.18002106,-1.05003723,-0.09997482,27.00008393,0.07700117
'1:58.250',0.18002106,-1.05003723,-0.09997482,26.80002747,0.07700117
'1:58.375',0.18002106,-1.04002365,-0.09997482,27.00008393,0.07700117
'1:58.500',0.18002106,-1.05003723,-0.10999969,27.00008393,0.07700117
'1:58.625',0.18002106,-1.05003723,-0.09997482,27.00008393,0.07700117
'1:58.750',0.19004181,-1.05003723,-0.09997482,27.00008393,0.07700117
'1:58.875',0.18002106,-1.05003723,-0.09997482,27.00008393,0.07700117
'1:59.000',0.18002106,-1.05003723,-0.09997482,26.80002747,0.07700117
'1:59.125',0.18002106,-1.05003723,-0.09997482,27.00008393,0.07900121
'1:59.250',0.18002106,-1.05003723,-0.09997482,27.00008393,0.07700117
'1:59.375',0.18002106,-1.05003723,-0.09997482,27.00008393,0.07700117
'1:59.500',0.18002106,-1.05003723,-0.09997482,27.00008393,0.07700117
'1:59.625',0.17000031,-1.05003723,-0.09997482,27.00008393,0.07700117
'1:59.750',0.18002106,-1.05003723,-0.09997482,27.00008393,0.07700117
'1:59.875',0.18002106,-1.05003723,-0.09997482,27.00008393,0.07700117
'2:00.000',0.18002106,-1.05003723,-0.09997482,27.00008393,0.07700117
'2:00.125',0.18002106,-1.05003723,-0.09997482,27.00008393,0.07700117
'2:00.250',0.17000031,-1.04002365,-0.09997482,27.00008393,0.07700117
'2:00.375',0.18002106,-1.05003723,-0.09997482,27.00008393,0.07700117
'2:00.500',0.18002106,-1.05003723,-0.09997482,27.00008393,0.07700117
'2:00.625',0.18002106,-1.05003723,-0.09997482,27.00008393,0.08000122
'2:00.750',0.17000031,-1.04002365,-0.09997482,27.00008393,0.07900121
'2:00.875',0.17000031,-1.05003723,-0.09997482,27.00008393,0.07700117
'2:01.000',0.17000031,-1.05003723,-0.09997482,27.00008393,0.07700117
'2:01.125',0.18002106,-1.05003723,-0.09997482,27.00008393,0.07700117
'2:01.250',0.18002106,-1.05003723,-0.09997482,27.00008393,0.07900121
'2:01.375',0.18002106,-1.05003723,-0.09997482,27.00008393,0.07700117
'2:01.500',0.17000031,-1.05003723,-0.09997482,27.00008393,0.07700117
'2:01.625',0.18002106,-1.05003723,-0.09997482,27.00008393,0.07700117
'2:01.750',0.18002106,-1.05003723,-0.09997482,27.00008393,0.07900121
'2:01.875',0.17000031,-1.05003723,-0.09997482,27.00008393,0.07700117
'2:02.000',0.18002106,-1.05003723,-0.09997482,27.00008393,0.07900121
'2:02.125',0.18002106,-1.05003723,-0.09997482,27.00008393,0.07700117
'2:02.250',0.18002106,-1.05003723,-0.09997482,26.80002747,0.07900121
'2:02.375',0.18002106,-1.05003723,-0.09997482,27.00008393,0.07700117
'2:02.500',0.18002106,-1.05003723,-0.09997482,27.00008393,0.07700117
'2:02.625',0.18002106,-1.04002365,-0.09997482,27.00008393,0.07700117
'2:02.750',0.18002106,-1.05003723,-0.09997482,27.00008393,0.07700117
'2:02.875',0.18002106,-1.05003723,-0.09997482,27.00008393,0.07700117
'2:03.000',0.18002106,-1.05003723,-0.09997482,27.00008393,0.07900121
'2:03.125',0.18002106,-1.05003723,-0.09997482,27.00008393,0.07700117
'2:03.250',0.18002106,-1.05003723,-0.09997482,27.00008393,0.07900121
'2:03.375',0.18002106,-1.05003723,-0.09997482,27.00008393,0.07700117
'2:03.500',0.18002106,-1.05003723,-0.09997482,27.00008393,0.07700117
'2:03.625',0.17000031,-1.05003723,-0.10999969,27.00008393,0.07700117
'2:03.750',0.17000031,-1.05003723,-0.09997482,27.00008393,0.07900121
'2:03.875',0.18002106,-1.05003723,-0.09997482,27.00008393,0.07900121
'2:04.000',0.17000031,-1.05003723,-0.09997482,27.00008393,0.07700117
'2:04.125',0.17000031,-1.05003723,-0.09997482,27.00008393,0.07900121
'2:04.250',0.17000031,-1.04002365,-0.09997482,27.00008393,0.07900121
'2:04.375',0.18002106,-1.05003723,-0.09997482,27.00008393,0.07900121
'2:04.500',0.18002106,-1.05003723,-0.09997482,27.00008393,0.07700117
'2:04.625',0.17000031,-1.05003723,-0.09997482,27.00008393,0.07900121
'2:04.750',0.18002106,-1.05003723,-0.09997482,27.00008393,0.07900121
'2:04.875',0.17000031,-1.05003723,-0.09997482,27.00008393,0.07900121
'2:05.000',0.18002106,-1.05003723,-0.09997482,27.00008393,0.07900121
'2:05.125',0.18002106,-1.05003723,-0.09997482,27.00008393,0.08000122
'2:05.250',0.18002106,-1.05003723,-0.09997482,27.00008393,0.07900121
'2:05.375',0.18002106,-1.05003723,-0.09997482,27.00008393,0.08000122
'2:05.500',0.18002106,-1.05003723,-0.09997482,27.00008393,0.07700117
'2:05.625',0.18002106,-1.05003723,-0.09997482,27.00008393,0.08200125
'2:05.750',0.18002106,-1.05003723,-0.09997482,27.00008393,0.08200125
'2:05.875',0.18002106,-1.05003723,-0.09997482,27.00008393,0.07700117
'2:06.000',0.17000031,-1.05003723,-0.09997482,27.00008393,0.07700117
'2:06.125',0.18002106,-1.05003723,-0.09997482,27.00008393,0.07900121
'2:06.250',0.17000031,-1.05003723,-0.09997482,27.00008393,0.07900121
'2:06.375',0.17000031,-1.05003723,-0.09997482,27.00008393,0.08000122
'2:06.500',0.18002106,-1.05003723,-0.09997482,27.00008393,0.08200125
'2:06.625',0.17000031,-1.05003723,-0.09997482,27.00008393,0.07900121
'2:06.750',0.18002106,-1.05003723,-0.09997482,27.00008393,0.07900121
'2:06.875',0.18002106,-1.05003723,-0.09997482,27.00008393,0.07900121
'2:07.000',0.18002106,-1.05003723,-0.09997482,27.00008393,0.07700117
'2:07.125',0.17000031,-1.05003723,-0.09997482,27.00008393,0.07900121
'2:07.250',0.18002106,-1.05003723,-0.09997482,27.00008393,0.07900121
'2:07.375',0.18002106,-1.05003723,-0.09997482,27.00008393,0.08000122
'2:07.500',0.17000031,-1.05003723,-0.09997482,27.00008393,0.08100124
'2:07.625',0.18002106,-1.05003723,-0.09997482,27.00008393,0.07700117
'2:07.750',0.18002106,-1.05003723,-0.09997482,27.00008393,0.07900121
'2:07.875',0.17000031,-1.04002365,-0.09997482,27.00008393,0.08200125
'2:08.000',0.17000031,-1.05003723,-0.09997482,27.00008393,0.08200125
'2:08.125',0.17000031,-1.04002365,-0.09997482,27.00008393,0.07700117
'2:08.250',0.18002106,-1.05003723,-0.09997482,27.00008393,0.07900121
'2:08.375',0.18002106,-1.05003723,-0.09997482,27.00008393,0.07900121
'2:08.500',0.18002106,-1.05003723,-0.09997482,27.00008393,0.07900121
'2:08.625',0.17000031,-1.05003723,-0.09997482,27.00008393,0.07700117
'2:08.750',0.16002991,-1.04002365,-0.09997482,27.00008393,0.08200125
'2:08.875',0.18002106,-1.05003723,-0.09997482,27.00008393,0.07900121
'2:09.000',0.18002106,-1.05003723,-0.09997482,27.00008393,0.07900121
'2:09.125',0.17000031,-1.05003723,-0.09997482,27.00008393,0.07900121
'2:09.250',0.18002106,-1.04002365,-0.09997482,27.00008393,0.07900121
'2:09.375',0.17000031,-1.05003723,-0.09997482,27.00008393,0.07900121
'2:09.500',0.17000031,-1.05003723,-0.10999969,27.20004120,0.07900121
'2:09.625',0.18002106,-1.05003723,-0.10999969,27.20004120,0.08000122
'2:09.750',0.17000031,-1.05003723,-0.09997482,27.20004120,0.08000122
'2:09.875',0.18002106,-1.04002365,-0.10999969,27.20004120,0.08000122
'2:10.000',0.17000031,-1.05003723,-0.09997482,27.20004120,0.08000122
'2:10.125',0.18002106,-1.05003723,-0.10999969,27.20004120,0.07900121
'2:10.250',0.18002106,-1.05003723,-0.09997482,27.00008393,0.07900121
'2:10.375',0.18002106,-1.05003723,-0.09997482,27.00008393,0.07900121
'2:10.500',0.17000031,-1.05003723,-0.09997482,27.00008393,0.08200125
'2:10.625',0.18002106,-1.05003723,-0.09997482,27.00008393,0.08200125
'2:10.750',0.18002106,-1.05003723,-0.09997482,27.00008393,0.07900121
'2:10.875',0.18002106,-1.05003723,-0.09997482,27.00008393,0.08200125
'2:11.000',0.18002106,-1.05003723,-0.09997482,27.20004120,0.07900121
'2:11.125',0.17000031,-1.05003723,-0.09997482,27.00008393,0.07900121
'2:11.250',0.18002106,-1.05003723,-0.09997482,27.20004120,0.07900121
'2:11.375',0.17000031,-1.04002365,-0.09997482,27.00008393,0.07900121
'2:11.500',0.18002106,-1.05003723,-0.09997482,27.20004120,0.07900121
'2:11.625',0.18002106,-1.05003723,-0.09997482,27.20004120,0.07900121
'2:11.750',0.17000031,-1.04002365,-0.09997482,27.00008393,0.08200125
'2:11.875',0.17000031,-1.05003723,-0.09997482,27.20004120,0.07900121
'2:12.000',0.17000031,-1.05003723,-0.09997482,27.00008393,0.07900121
'2:12.125',0.17000031,-1.05003723,-0.09997482,27.00008393,0.07900121
'2:12.250',0.18002106,-1.05003723,-0.09997482,27.00008393,0.08200125
'2:12.375',0.18002106,-1.05003723,-0.09997482,27.20004120,0.08200125
'2:12.500',0.18002106,-1.05003723,-0.09997482,27.20004120,0.07900121
'2:12.625',0.17000031,-1.05003723,-0.09997482,27.00008393,0.08200125
'2:12.750',0.17000031,-1.05003723,-0.09997482,27.00008393,0.08200125
'2:12.875',0.17000031,-1.05003723,-0.09997482,27.20004120,0.08200125
'2:13.000',0.18002106,-1.05003723,-0.09997482,27.20004120,0.07900121
'2:13.125',0.17000031,-1.05003723,-0.09997482,27.00008393,0.07700117
'2:13.250',0.17000031,-1.05003723,-0.09997482,27.20004120,0.07900121
'2:13.375',0.17000031,-1.05003723,-0.09997482,27.20004120,0.07900121
'2:13.500',0.17000031,-1.04002365,-0.09997482,27.00008393,0.07900121
'2:13.625',0.18002106,-1.05003723,-0.09997482,27.00008393,0.07900121
'2:13.750',0.17000031,-1.05003723,-0.09997482,27.20004120,0.08200125
'2:13.875',0.17000031,-1.04002365,-0.09997482,27.20004120,0.07900121
'2:14.000',0.17000031,-1.05003723,-0.09997482,27.00008393,0.08200125
'2:14.125',0.17000031,-1.05003723,-0.09997482,27.20004120,0.07900121
'2:14.250',0.18002106,-1.05003723,-0.09997482,27.20004120,0.07900121
'2:14.375',0.17000031,-1.05003723,-0.09997482,27.20004120,0.08200125
'2:14.500',0.18002106,-1.05003723,-0.09997482,27.20004120,0.07900121
'2:14.625',0.18002106,-1.05003723,-0.09997482,27.20004120,0.07900121
'2:14.750',0.17000031,-1.04002365,-0.09997482,27.20004120,0.08200125
'2:14.875',0.18002106,-1.05003723,-0.09997482,27.00008393,0.07900121
'2:15.000',0.18002106,-1.04002365,-0.09997482,27.20004120,0.07900121
'2:15.125',0.17000031,-1.04002365,-0.09997482,27.00008393,0.07900121
'2:15.250',0.17000031,-1.05003723,-0.09997482,27.20004120,0.08200125
'2:15.375',0.17000031,-1.05003723,-0.09997482,27.20004120,0.07900121
'2:15.500',0.17000031,-1.05003723,-0.09997482,27.20004120,0.08200125
'2:15.625',0.17000031,-1.04002365,-0.09997482,27.00008393,0.08200125
'2:15.750',0.18002106,-1.05003723,-0.09997482,27.20004120,0.07900121
'2:15.875',0.18002106,-1.05003723,-0.09997482,27.20004120,0.07900121
'2:16.000',0.17000031,-1.05003723,-0.09997482,27.20004120,0.07900121
'2:16.125',0.18002106,-1.05003723,-0.09997482,27.20004120,0.07900121
'2:16.250',0.16002991,-1.05003723,-0.09997482,27.20004120,0.07900121
'2:16.375',0.17000031,-1.05003723,-0.09997482,27.20004120,0.08200125
'2:16.500',0.18002106,-1.05003723,-0.09997482,27.20004120,0.07900121
'2:16.625',0.18002106,-1.05003723,-0.09997482,27.20004120,0.07900121
'2:16.750',0.18002106,-1.05003723,-0.09997482,27.20004120,0.07900121
'2:16.875',0.18002106,-1.05003723,-0.09997482,27.00008393,0.08200125
'2:17.000',0.18002106,-1.05003723,-0.09997482,27.20004120,0.07900121
'2:17.125',0.18002106,-1.05003723,-0.09997482,27.20004120,0.07900121
'2:17.250',0.18002106,-1.05003723,-0.09997482,27.20004120,0.07900121
'2:17.375',0.18002106,-1.05003723,-0.09997482,27.20004120,0.07900121
'2:17.500',0.18002106,-1.05003723,-0.09997482,27.20004120,0.08000122
'2:17.625',0.18002106,-1.05003723,-0.09997482,27.20004120,0.07900121
'2:17.750',0.18002106,-1.05003723,-0.09997482,27.20004120,0.07900121
'2:17.875',0.17000031,-1.05003723,-0.09997482,27.20004120,0.08200125
'2:18.000',0.18002106,-1.05003723,-0.09997482,27.20004120,0.07900121
'2:18.125',0.19004181,-1.05003723,-0.09997482,27.20004120,0.07900121
'2:18.250',0.17000031,-1.05003723,-0.09997482,27.20004120,0.08200125
'2:18.375',0.18002106,-1.05003723,-0.09997482,27.20004120,0.08200125
'2:18.500',0.17000031,-1.05003723,-0.09997482,27.20004120,0.08200125
'2:18.625',0.18002106,-1.05003723,-0.09997482,27.20004120,0.08200125
'2:18.750',0.18002106,-1.05003723,-0.09997482,27.20004120,0.08200125
'2:18.875',0.18002106,-1.05003723,-0.09997482,27.20004120,0.07900121
'2:19.000',0.17000031,-1.05003723,-0.09997482,27.20004120,0.07900121
'2:19.125',0.18002106,-1.05003723,-0.09997482,27.20004120,0.08200125
'2:19.250',0.18002106,-1.05003723,-0.09997482,27.20004120,0.07900121
'2:19.375',0.17000031,-1.05003723,-0.09997482,27.20004120,0.08200125
'2:19.500',0.17000031,-1.05003723,-0.09997482,27.20004120,0.07900121
'2:19.625',0.18002106,-1.05003723,-0.09997482,27.20004120,0.08200125
'2:19.750',0.17000031,-1.05003723,-0.09997482,27.20004120,0.08200125
'2:19.875',0.17000031,-1.05003723,-0.09997482,27.20004120,0.07900121
'2:20.000',0.17000031,-1.05003723,-0.09997482,27.20004120,0.08200125
'2:20.125',0.18002106,-1.05003723,-0.09997482,27.20004120,0.07900121
'2:20.250',0.18002106,-1.05003723,-0.09997482,27.20004120,0.08200125
'2:20.375',0.18002106,-1.05003723,-0.09997482,27.20004120,0.07900121
'2:20.500',0.18002106,-1.05003723,-0.09997482,27.20004120,0.07900121
'2:20.625',0.18002106,-1.05003723,-0.09997482,27.20004120,0.08200125
'2:20.750',0.17000031,-1.05003723,-0.09997482,27.20004120,0.08200125
'2:20.875',0.18002106,-1.05003723,-0.09997482,27.20004120,0.08200125
'2:21.000',0.19004181,-1.05003723,-0.09997482,27.20004120,0.07900121
'2:21.125',0.17000031,-1.05003723,-0.09997482,27.20004120,0.07900121
'2:21.250',0.18002106,-1.05003723,-0.09997482,27.20004120,0.07900121
'2:21.375',0.18002106,-1.05003723,-0.09997482,27.20004120,0.07900121
'2:21.500',0.18002106,-1.05003723,-0.09997482,27.20004120,0.08200125
'2:21.625',0.18002106,-1.05003723,-0.09997482,27.20004120,0.08200125
'2:21.750',0.18002106,-1.05003723,-0.09997482,27.20004120,0.07900121
'2:21.875',0.19004181,-1.05003723,-0.09997482,27.20004120,0.08200125
'2:22.000',0.18002106,-1.05003723,-0.09997482,27.20004120,0.08200125
'2:22.125',0.18002106,-1.05003723,-0.09997482,27.20004120,0.08200125
'2:22.250',0.18002106,-1.04002365,-0.09997482,27.20004120,0.08200125
'2:22.375',0.18002106,-1.05003723,-0.09997482,27.20004120,0.07900121
'2:22.500',0.18002106,-1.05003723,-0.09997482,27.20004120,0.07900121
'2:22.625',0.17000031,-1.05003723,-0.09997482,27.20004120,0.08200125
'2:22.750',0.18002106,-1.05003723,-0.09997482,27.20004120,0.08200125
'2:22.875',0.17000031,-1.05003723,-0.09997482,27.20004120,0.08200125
'2:23.000',0.17000031,-1.05003723,-0.09997482,27.20004120,0.07900121
'2:23.125',0.18002106,-1.05003723,-0.09997482,27.20004120,0.08200125
'2:23.250',0.17000031,-1.05003723,-0.10999969,27.20004120,0.07900121
'2:23.375',0.17000031,-1.05003723,-0.09997482,27.20004120,0.08200125
'2:23.500',0.18002106,-1.05003723,-0.09997482,27.20004120,0.08200125
'2:23.625',0.17000031,-1.05003723,-0.09997482,27.20004120,0.07900121
'2:23.750',0.18002106,-1.04002365,-0.09997482,27.20004120,0.08200125
'2:23.875',0.18002106,-1.05003723,-0.09997482,27.20004120,0.08200125
'2:24.000',0.18002106,-1.05003723,-0.09997482,27.20004120,0.08200125
'2:24.125',0.18002106,-1.05003723,-0.09997482,27.20004120,0.08200125
'2:24.250',0.17000031,-1.04002365,-0.09997482,27.20004120,0.08200125
'2:24.375',0.19004181,-1.05003723,-0.09997482,27.20004120,0.08200125
'2:24.500',0.18002106,-1.05003723,-0.09997482,27.20004120,0.07900121
'2:24.625',0.20001221,-1.05003723,-0.07997986,27.20004120,0.08200125
'2:24.750',0.16002991,-1.04002365,-0.09997482,27.20004120,0.08200125
'2:24.875',0.18002106,-1.05003723,-0.09997482,27.20004120,0.08200125
'2:25.000',0.18002106,-1.05003723,-0.09997482,27.20004120,0.08200125
'2:25.125',0.18002106,-1.05003723,-0.09997482,27.20004120,0.08200125
'2:25.250',0.17000031,-1.05003723,-0.09997482,27.20004120,0.07900121
'2:25.375',0.18002106,-1.05003723,-0.09997482,27.20004120,0.08200125
'2:25.500',0.18002106,-1.05003723,-0.09997482,27.40009766,0.08200125
'2:25.625',0.18002106,-1.05003723,-0.09997482,27.20004120,0.08200125
'2:25.750',0.18002106,-1.05003723,-0.09997482,27.20004120,0.08200125
'2:25.875',0.18002106,-1.05003723,-0.09997482,27.20004120,0.08200125
'2:26.000',0.17000031,-1.05003723,-0.09997482,27.20004120,0.08200125
'2:26.125',0.18002106,-1.04002365,-0.09997482,27.20004120,0.08200125
'2:26.250',0.18002106,-1.05003723,-0.09997482,27.20004120,0.08200125
'2:26.375',0.17000031,-1.04002365,-0.09997482,27.20004120,0.08200125
'2:26.500',0.18002106,-1.05003723,-0.09997482,27.20004120,0.08200125
'2:26.625',0.18002106,-1.05003723,-0.09997482,27.20004120,0.08200125
'2:26.750',0.17000031,-1.05003723,-0.09997482,27.40009766,0.08200125
'2:26.875',0.17000031,-1.05003723,-0.09997482,27.20004120,0.07900121
'2:27.000',0.17000031,-1.05003723,-0.09997482,27.20004120,0.08200125
'2:27.125',0.18002106,-1.05003723,-0.09997482,27.40009766,0.08200125
'2:27.250',0.18002106,-1.05003723,-0.09997482,27.20004120,0.08200125
'2:27.375',0.17000031,-1.05003723,-0.09997482,27.20004120,0.08200125
'2:27.500',0.18002106,-1.05003723,-0.09997482,27.20004120,0.07900121
'2:27.625',0.18002106,-1.05003723,-0.09997482,27.40009766,0.07900121
'2:27.750',0.17000031,-1.05003723,-0.09997482,27.20004120,0.08200125
'2:27.875',0.17000031,-1.05003723,-0.09997482,27.20004120,0.08200125
'2:28.000',0.16002991,-1.05003723,-0.09997482,27.20004120,0.08200125
'2:28.125',0.17000031,-1.05003723,-0.09997482,27.40009766,0.08200125
'2:28.250',0.18002106,-1.05003723,-0.09997482,27.40009766,0.08200125
'2:28.375',0.17000031,-1.05003723,-0.09997482,27.40009766,0.08200125
'2:28.500',0.17000031,-1.05003723,-0.09997482,27.20004120,0.08200125
'2:28.625',0.17000031,-1.05003723,-0.09997482,27.20004120,0.08200125
'2:28.750',0.18002106,-1.05003723,-0.09997482,27.40009766,0.08200125
'2:28.875',0.18002106,-1.05003723,-0.09997482,27.40009766,0.08200125
'2:29.000',0.18002106,-1.05003723,-0.09997482,27.40009766,0.08200125
'2:29.125',0.18002106,-1.05003723,-0.09997482,27.20004120,0.08200125
'2:29.250',0.17000031,-1.05003723,-0.09997482,27.40009766,0.08200125
'2:29.375',0.18002106,-1.05003723,-0.09997482,27.20004120,0.08200125
'2:29.500',0.18002106,-1.05003723,-0.09997482,27.40009766,0.08200125
'2:29.625',0.17000031,-1.05003723,-0.09997482,27.20004120,0.08200125
'2:29.750',0.18002106,-1.05003723,-0.09997482,27.40009766,0.08200125
'2:29.875',0.18002106,-1.05003723,-0.09997482,27.20004120,0.08200125
'2:30.000',0.17000031,-1.05003723,-0.09997482,27.20004120,0.08200125
'2:30.125',0.18002106,-1.05003723,-0.09997482,27.40009766,0.08200125
'2:30.250',0.18002106,-1.05003723,-0.09997482,27.40009766,0.08200125
'2:30.375',0.18002106,-1.05003723,-0.09997482,27.40009766,0.08200125
'2:30.500',0.18002106,-1.05003723,-0.09997482,27.40009766,0.08200125
'2:30.625',0.18002106,-1.05003723,-0.09997482,27.40009766,0.08200125
'2:30.750',0.18002106,-1.05003723,-0.09997482,27.20004120,0.08200125
'2:30.875',0.17000031,-1.05003723,-0.09997482,27.40009766,0.08200125
'2:31.000',0.18002106,-1.05003723,-0.09997482,27.20004120,0.08200125
'2:31.125',0.17000031,-1.05003723,-0.09997482,27.40009766,0.08200125
'2:31.250',0.18002106,-1.05003723,-0.09997482,27.20004120,0.08200125
'2:31.375',0.18002106,-1.04002365,-0.09997482,27.40009766,0.08200125
'2:31.500',0.17000031,-1.05003723,-0.09997482,27.40009766,0.08200125
'2:31.625',0.17000031,-1.05003723,-0.09997482,27.40009766,0.08200125
'2:31.750',0.17000031,-1.05003723,-0.09997482,27.20004120,0.08200125
'2:31.875',0.18002106,-1.05003723,-0.09997482,27.40009766,0.08200125
'2:32.000',0.17000031,-1.05003723,-0.09997482,27.40009766,0.08200125
'2:32.125',0.17000031,-1.05003723,-0.09997482,27.20004120,0.08200125
'2:32.250',0.17000031,-1.05003723,-0.09997482,27.40009766,0.08200125
'2:32.375',0.18002106,-1.05003723,-0.09997482,27.40009766,0.08200125
'2:32.500',0.17000031,-1.05003723,-0.09997482,27.20004120,0.08200125
'2:32.625',0.18002106,-1.05003723,-0.10999969,27.40009766,0.08200125
'2:32.750',0.17000031,-1.04002365,-0.09997482,27.40009766,0.08200125
'2:32.875',0.18002106,-1.05003723,-0.09997482,27.40009766,0.08200125
'2:33.000',0.18002106,-1.05003723,-0.09997482,27.40009766,0.08200125
'2:33.125',0.17000031,-1.05003723,-0.09997482,27.40009766,0.07900121
'2:33.250',0.18002106,-1.05003723,-0.09997482,27.20004120,0.08200125
'2:33.375',0.18002106,-1.05003723,-0.09997482,27.40009766,0.08200125
'2:33.500',0.18002106,-1.05003723,-0.09997482,27.40009766,0.08200125
'2:33.625',0.17000031,-1.04002365,-0.09997482,27.40009766,0.08200125
'2:33.750',0.17000031,-1.05003723,-0.09997482,27.40009766,0.08200125
'2:33.875',0.18002106,-1.05003723,-0.09997482,27.40009766,0.08200125
'2:34.000',0.18002106,-1.05003723,-0.09997482,27.40009766,0.07900121
'2:34.125',0.18002106,-1.05003723,-0.09997482,27.40009766,0.08200125
'2:34.250',0.18002106,-1.05003723,-0.09997482,27.40009766,0.08200125
'2:34.375',0.17000031,-1.05003723,-0.09997482,27.40009766,0.08200125
'2:34.500',0.17000031,-1.05003723,-0.09997482,27.40009766,0.08200125
'2:34.625',0.17000031,-1.04002365,-0.09997482,27.40009766,0.08200125
'2:34.750',0.18002106,-1.05003723,-0.09997482,27.40009766,0.08200125
'2:34.875',0.17000031,-1.05003723,-0.09997482,27.40009766,0.08200125
'2:35.000',0.18002106,-1.05003723,-0.09997482,27.40009766,0.08200125
'2:35.125',0.18002106,-1.05003723,-0.09997482,27.40009766,0.08200125
'2:35.250',0.18002106,-1.05003723,-0.09997482,27.40009766,0.08200125
'2:35.375',0.17000031,-1.05003723,-0.09997482,27.40009766,0.08200125
'2:35.500',0.17000031,-1.05003723,-0.09997482,27.40009766,0.08200125
'2:35.625',0.18002106,-1.05003723,-0.09997482,27.40009766,0.08200125
'2:35.750',0.17000031,-1.05003723,-0.09997482,27.40009766,0.08200125
'2:35.875',0.17000031,-1.05003723,-0.09997482,27.40009766,0.08200125
'2:36.000',0.18002106,-1.05003723,-0.09997482,27.40009766,0.08200125
'2:36.125',0.18002106,-1.05003723,-0.09997482,27.40009766,0.08200125
'2:36.250',0.17000031,-1.04002365,-0.09997482,27.40009766,0.08200125
'2:36.375',0.18002106,-1.05003723,-0.09997482,27.40009766,0.08200125
'2:36.500',0.17000031,-1.05003723,-0.09997482,27.40009766,0.08200125
'2:36.625',0.18002106,-1.05003723,-0.09997482,27.40009766,0.08200125
'2:36.750',0.18002106,-1.05003723,-0.09997482,27.40009766,0.08200125
'2:36.875',0.17000031,-1.05003723,-0.09997482,27.40009766,0.08200125
'2:37.000',0.17000031,-1.04002365,-0.09997482,27.40009766,0.08200125
'2:37.125',0.17000031,-1.05003723,-0.09997482,27.40009766,0.08200125
'2:37.250',0.18002106,-1.05003723,-0.09997482,27.40009766,0.08200125
'2:37.375',0.17000031,-1.04002365,-0.09997482,27.40009766,0.08200125
'2:37.500',0.17000031,-1.05003723,-0.09997482,27.40009766,0.08200125
'2:37.625',0.18002106,-1.05003723,-0.09997482,27.40009766,0.08200125
'2:37.750',0.17000031,-1.05003723,-0.09997482,27.40009766,0.08200125
'2:37.875',0.18002106,-1.05003723,-0.09997482,27.40009766,0.08200125
'2:38.000',0.18002106,-1.05003723,-0.09997482,27.40009766,0.08200125
'2:38.125',0.18002106,-1.05003723,-0.09997482,27.40009766,0.08200125
'2:38.250',0.18002106,-1.05003723,-0.09997482,27.40009766,0.08200125
'2:38.375',0.17000031,-1.05003723,-0.09997482,27.40009766,0.08200125
'2:38.500',0.17000031,-1.05003723,-0.09997482,27.40009766,0.08200125
'2:38.625',0.18002106,-1.05003723,-0.09997482,27.40009766,0.08200125
'2:38.750',0.17000031,-1.05003723,-0.09997482,27.40009766,0.08200125
'2:38.875',0.18002106,-1.05003723,-0.09997482,27.40009766,0.08200125
'2:39.000',0.18002106,-1.05003723,-0.09997482,27.40009766,0.08200125
'2:39.125',0.18002106,-1.05003723,-0.09997482,27.40009766,0.08200125
'2:39.250',0.17000031,-1.05003723,-0.09997482,27.40009766,0.08200125
'2:39.375',0.18002106,-1.05003723,-0.09997482,27.40009766,0.08200125
'2:39.500',0.18002106,-1.05003723,-0.09997482,27.40009766,0.08200125
'2:39.625',0.18002106,-1.05003723,-0.09997482,27.40009766,0.08200125
'2:39.750',0.18002106,-1.05003723,-0.09997482,27.40009766,0.08200125
'2:39.875',0.18002106,-1.05003723,-0.09997482,27.40009766,0.08200125
'2:40.000',0.17000031,-1.05003723,-0.09997482,27.40009766,0.08200125
'2:40.125',0.17000031,-1.05003723,-0.09997482,27.40009766,0.08200125
'2:40.250',0.18002106,-1.05003723,-0.09997482,27.40009766,0.08200125
'2:40.375',0.18002106,-1.05003723,-0.09997482,27.40009766,0.08200125
'2:40.500',0.18002106,-1.05003723,-0.09997482,27.40009766,0.08200125
'2:40.625',0.18002106,-1.05003723,-0.09997482,27.40009766,0.08200125
'2:40.750',0.18002106,-1.05003723,-0.09997482,27.40009766,0.08200125
'2:40.875',0.18002106,-1.05003723,-0.09997482,27.40009766,0.08200125
'2:41.000',0.17000031,-1.05003723,-0.09997482,27.40009766,0.08200125
'2:41.125',0.18002106,-1.05003723,-0.09997482,27.40009766,0.08200125
'2:41.250',0.17000031,-1.05003723,-0.09997482,27.40009766,0.08200125
'2:41.375',0.17000031,-1.05003723,-0.09997482,27.40009766,0.08200125
'2:41.500',0.17000031,-1.05003723,-0.09997482,27.40009766,0.08200125
'2:41.625',0.17000031,-1.05003723,-0.09997482,27.40009766,0.08200125
'2:41.750',0.18002106,-1.05003723,-0.09997482,27.40009766,0.08200125
'2:41.875',0.18002106,-1.05003723,-0.09997482,27.40009766,0.08200125
'2:42.000',0.17000031,-1.04002365,-0.09997482,27.40009766,0.08200125
'2:42.125',0.17000031,-1.04002365,-0.09997482,27.40009766,0.08200125
'2:42.250',0.18002106,-1.05003723,-0.09997482,27.40009766,0.08200125
'2:42.375',0.17000031,-1.05003723,-0.09997482,27.40009766,0.08200125
'2:42.500',0.18002106,-1.05003723,-0.09997482,27.40009766,0.08200125
'2:42.625',0.19004181,-1.05003723,-0.09997482,27.40009766,0.08200125
'2:42.750',0.17000031,-1.05003723,-0.09997482,27.40009766,0.08200125
'2:42.875',0.18002106,-1.05003723,-0.09997482,27.40009766,0.08200125
'2:43.000',0.18002106,-1.05003723,-0.09997482,27.40009766,0.08200125
'2:43.125',0.17000031,-1.05003723,-0.09997482,27.40009766,0.08200125
'2:43.250',0.18002106,-1.05003723,-0.09997482,27.40009766,0.08200125
'2:43.375',0.18002106,-1.05003723,-0.09997482,27.40009766,0.08200125
'2:43.500',0.17000031,-1.05003723,-0.09997482,27.40009766,0.08200125
'2:43.625',0.18002106,-1.04002365,-0.09997482,27.40009766,0.08200125
'2:43.750',0.17000031,-1.05003723,-0.09997482,27.40009766,0.08200125
'2:43.875',0.17000031,-1.05003723,-0.09997482,27.40009766,0.08200125
'2:44.000',0.18002106,-1.05003723,-0.09997482,27.40009766,0.08200125
'2:44.125',0.18002106,-1.05003723,-0.09997482,27.40009766,0.08200125
'2:44.250',0.16002991,-1.04002365,-0.09997482,27.40009766,0.08200125
'2:44.375',0.17000031,-1.05003723,-0.09997482,27.40009766,0.08200125
'2:44.500',0.18002106,-1.05003723,-0.09997482,27.40009766,0.08200125
'2:44.625',0.17000031,-1.05003723,-0.09997482,27.40009766,0.08200125
'2:44.750',0.18002106,-1.05003723,-0.09997482,27.40009766,0.08200125
'2:44.875',0.18002106,-1.05003723,-0.09997482,27.40009766,0.08200125
'2:45.000',0.17000031,-1.04002365,-0.09997482,27.40009766,0.08200125
'2:45.125',0.18002106,-1.05003723,-0.09997482,27.40009766,0.08200125
'2:45.250',0.18002106,-1.05003723,-0.09997482,27.40009766,0.08200125
'2:45.375',0.18002106,-1.05003723,-0.09997482,27.40009766,0.08200125
'2:45.500',0.18002106,-1.05003723,-0.09997482,27.40009766,0.08200125
'2:45.625',0.17000031,-1.05003723,-0.09997482,27.40009766,0.08200125
'2:45.750',0.18002106,-1.05003723,-0.09997482,27.40009766,0.08200125
'2:45.875',0.17000031,-1.05003723,-0.09997482,27.40009766,0.08200125
'2:46.000',0.18002106,-1.04002365,-0.09997482,27.40009766,0.08200125
'2:46.125',0.17000031,-1.05003723,-0.09997482,27.40009766,0.08200125
'2:46.250',0.18002106,-1.05003723,-0.09997482,27.40009766,0.08200125
'2:46.375',0.18002106,-1.05003723,-0.09997482,27.40009766,0.08200125
'2:46.500',0.18002106,-1.05003723,-0.09997482,27.40009766,0.08200125
'2:46.625',0.17000031,-1.05003723,-0.09997482,27.40009766,0.08200125
'2:46.750',0.17000031,-1.05003723,-0.09997482,27.40009766,0.08200125
'2:46.875',0.17000031,-1.05003723,-0.09997482,27.40009766,0.08200125
'2:47.000',0.17000031,-1.04002365,-0.09997482,27.40009766,0.08200125
'2:47.125',0.18002106,-1.05003723,-0.09997482,27.40009766,0.08200125
'2:47.250',0.17000031,-1.05003723,-0.09997482,27.40009766,0.08200125
'2:47.375',0.18002106,-1.05003723,-0.09997482,27.40009766,0.08200125
'2:47.500',0.17000031,-1.05003723,-0.09997482,27.40009766,0.08200125
'2:47.625',0.17000031,-1.05003723,-0.09997482,27.40009766,0.08200125
'2:47.750',0.18002106,-1.05003723,-0.09997482,27.60005493,0.08200125
'2:47.875',0.18002106,-1.05003723,-0.09997482,27.40009766,0.08200125
'2:48.000',0.17000031,-1.05003723,-0.09997482,27.40009766,0.08200125
'2:48.125',0.17000031,-1.05003723,-0.09997482,27.40009766,0.08200125
'2:48.250',0.17000031,-1.04002365,-0.09997482,27.40009766,0.08200125
'2:48.375',0.17000031,-1.05003723,-0.09997482,27.60005493,0.08200125
'2:48.500',0.18002106,-1.05003723,-0.09997482,27.40009766,0.08200125
'2:48.625',0.17000031,-1.05003723,-0.09997482,27.40009766,0.08200125
'2:48.750',0.18002106,-1.05003723,-0.09997482,27.40009766,0.08200125
'2:48.875',0.17000031,-1.05003723,-0.09997482,27.60005493,0.08200125
'2:49.000',0.18002106,-1.05003723,-0.09997482,27.40009766,0.08200125
'2:49.125',0.18002106,-1.05003723,-0.09997482,27.40009766,0.08200125
'2:49.250',0.18002106,-1.05003723,-0.09997482,27.40009766,0.08200125
'2:49.375',0.17000031,-1.05003723,-0.09997482,27.40009766,0.08200125
'2:49.500',0.17000031,-1.05003723,-0.09997482,27.40009766,0.08200125
'2:49.625',0.18002106,-1.05003723,-0.09997482,27.40009766,0.08200125
'2:49.750',0.17000031,-1.05003723,-0.09997482,27.60005493,0.08200125
'2:49.875',0.17000031,-1.05003723,-0.09997482,27.40009766,0.08200125
'2:50.000',0.17000031,-1.05003723,-0.09997482,27.40009766,0.08200125
'2:50.125',0.17000031,-1.05003723,-0.09997482,27.60005493,0.08200125
'2:50.250',0.17000031,-1.05003723,-0.09997482,27.60005493,0.08200125
'2:50.375',0.17000031,-1.05003723,-0.09997482,27.40009766,0.08200125
'2:50.500',0.17000031,-1.05003723,-0.09997482,27.40009766,0.08200125
'2:50.625',0.17000031,-1.05003723,-0.09997482,27.40009766,0.08200125
'2:50.750',0.17000031,-1.04002365,-0.09997482,27.40009766,0.08200125
'2:50.875',0.17000031,-1.05003723,-0.09997482,27.40009766,0.08200125
'2:51.000',0.17000031,-1.05003723,-0.09997482,27.60005493,0.08200125
'2:51.125',0.17000031,-1.04002365,-0.09997482,27.40009766,0.08200125
'2:51.250',0.25001526,-1.05003723,-0.09997482,27.40009766,0.08200125
'2:51.375',0.27000641,-1.04002365,-0.09997482,27.60005493,0.08200125
'2:51.500',0.27000641,-1.04002365,-0.09997482,27.60005493,0.08200125
'2:51.625',0.30001831,-1.04002365,-0.09997482,27.40009766,0.08200125
'2:51.750',0.33003021,-1.04002365,-0.09997482,27.40009766,0.08200125
'2:51.875',0.36004212,-1.04002365,-0.09997482,27.60005493,0.08200125
'2:52.000',0.35002136,-1.04002365,-0.09997482,27.60005493,0.08200125
'2:52.125',0.35002136,-1.03001007,-0.08994995,27.60005493,0.08200125
'2:52.250',0.35002136,-1.03001007,-0.08994995,27.40009766,0.08200125
'2:52.375',0.36004212,-1.03001007,-0.08994995,27.60005493,0.08200125
'2:52.500',0.36004212,-1.03001007,-0.08994995,27.60005493,0.08200125
'2:52.625',0.35002136,-1.03001007,-0.08994995,27.60005493,0.08100124
'2:52.750',0.35002136,-1.03001007,-0.09997482,27.40009766,0.08200125
'2:52.875',0.35002136,-1.03001007,-0.08994995,27.60005493,0.08200125
'2:53.000',0.36004212,-1.04002365,-0.09997482,27.60005493,0.08200125
'2:53.125',0.35002136,-1.03001007,-0.08994995,27.60005493,0.08200125
'2:53.250',0.35002136,-1.04002365,-0.09997482,27.40009766,0.08200125
'2:53.375',0.35002136,-1.03001007,-0.09997482,27.60005493,0.08200125
'2:53.500',0.37001251,-1.03001007,-0.09997482,27.40009766,0.08200125
'2:53.625',0.37001251,-1.03001007,-0.09997482,27.60005493,0.08200125
'2:53.750',0.37001251,-1.03001007,-0.08994995,27.60005493,0.08200125
'2:53.875',0.36004212,-1.03001007,-0.08994995,27.60005493,0.08200125
'2:54.000',0.36004212,-1.03001007,-0.08994995,27.60005493,0.08200125
'2:54.125',0.36004212,-1.03001007,-0.09997482,27.60005493,0.08200125
'2:54.250',0.36004212,-1.03001007,-0.08994995,27.60005493,0.08200125
'2:54.375',0.36004212,-1.03001007,-0.09997482,27.60005493,0.08200125
'2:54.500',0.36004212,-1.03001007,-0.09997482,27.60005493,0.08200125
'2:54.625',0.35002136,-1.03001007,-0.09997482,27.60005493,0.08200125
'2:54.750',0.37001251,-1.03001007,-0.08994995,27.60005493,0.08200125
'2:54.875',0.37001251,-1.03001007,-0.09997482,27.60005493,0.08200125
'2:55.000',0.36004212,-1.04002365,-0.09997482,27.60005493,0.08200125
'2:55.125',0.35002136,-1.04002365,-0.08994995,27.60005493,0.08200125
'2:55.250',0.31003906,-1.03001007,-0.09997482,27.60005493,0.08200125
'2:55.375',0.29004791,-1.04002365,-0.08994995,27.60005493,0.08200125
'2:55.500',0.29004791,-1.04002365,-0.10999969,27.60005493,0.08200125
'2:55.625',0.30001831,-1.04002365,-0.12999466,27.60005493,0.08200125
'2:55.750',0.27000641,-1.05003723,-0.10999969,27.60005493,0.08200125
'2:55.875',0.24004486,-1.05003723,-0.10999969,27.60005493,0.08200125
'2:56.000',0.28002716,-1.05003723,-0.09997482,27.60005493,0.08400128
'2:56.125',0.25001526,-1.04002365,-0.09997482,27.60005493,0.08200125
'2:56.250',0.28002716,-1.04002365,-0.09997482,27.60005493,0.08200125
'2:56.375',0.27000641,-1.04002365,-0.09997482,27.60005493,0.08200125
'2:56.500',0.27000641,-1.04002365,-0.09997482,27.60005493,0.08200125
'2:56.625',0.27000641,-1.04002365,-0.09997482,27.60005493,0.08200125
'2:56.750',0.27000641,-1.05003723,-0.09997482,27.60005493,0.08200125
'2:56.875',0.28002716,-1.05003723,-0.09997482,27.60005493,0.08400128
'2:57.000',0.27000641,-1.04002365,-0.09997482,27.60005493,0.08200125
'2:57.125',0.28002716,-1.05003723,-0.09997482,27.60005493,0.08200125
'2:57.250',0.27000641,-1.05003723,-0.09997482,27.60005493,0.08200125
'2:57.375',0.27000641,-1.04002365,-0.09997482,27.60005493,0.08200125
'2:57.500',0.27000641,-1.05003723,-0.09997482,27.60005493,0.08200125
'2:57.625',0.28002716,-1.04002365,-0.09997482,27.60005493,0.08200125
'2:57.750',0.27000641,-1.04002365,-0.09997482,27.60005493,0.08200125
'2:57.875',0.27000641,-1.05003723,-0.09997482,27.60005493,0.08200125
'2:58.000',0.28002716,-1.04002365,-0.09997482,27.60005493,0.08200125
'2:58.125',0.27000641,-1.04002365,-0.09997482,27.60005493,0.08200125
'2:58.250',0.28002716,-1.04002365,-0.09997482,27.60005493,0.08200125
'2:58.375',0.28002716,-1.04002365,-0.09997482,27.60005493,0.08200125
'2:58.500',0.27000641,-1.04002365,-0.09997482,27.60005493,0.08200125
'2:58.625',0.27000641,-1.04002365,-0.09997482,27.60005493,0.08200125
'2:58.750',0.28002716,-1.04002365,-0.09997482,27.60005493,0.08200125
'2:58.875',0.27000641,-1.04002365,-0.09997482,27.60005493,0.08200125
'2:59.000',0.26003601,-1.04002365,-0.09997482,27.60005493,0.08200125
'2:59.125',0.28002716,-1.04002365,-0.09997482,27.60005493,0.08200125
'2:59.250',0.28002716,-1.04002365,-0.09997482,27.60005493,0.08200125
'2:59.375',0.28002716,-1.04002365,-0.09997482,27.60005493,0.08200125
'2:59.500',0.28002716,-1.05003723,-0.09997482,27.60005493,0.08200125
'2:59.625',0.27000641,-1.04002365,-0.09997482,27.60005493,0.08200125
'2:59.750',0.28002716,-1.05003723,-0.09997482,27.60005493,0.08200125
'2:59.875',0.27000641,-1.04002365,-0.09997482,27.60005493,0.08200125
'3:00.000',0.27000641,-1.04002365,-0.09997482,27.60005493,0.08400128
'3:00.125',0.28002716,-1.05003723,-0.09997482,27.60005493,0.08200125
'3:00.250',0.27000641,-1.04002365,-0.09997482,27.60005493,0.08200125
'3:00.375',0.27000641,-1.04002365,-0.09997482,27.60005493,0.08400128
'3:00.500',0.27000641,-1.05003723,-0.09997482,27.60005493,0.08200125
'3:00.625',0.27000641,-1.04002365,-0.10999969,27.60005493,0.08200125
'3:00.750',0.25001526,-1.04002365,-0.09997482,27.60005493,0.08200125
'3:00.875',0.27000641,-1.04002365,-0.09997482,27.60005493,0.08400128
'3:01.000',0.28002716,-1.04002365,-0.09997482,27.60005493,0.08400128
'3:01.125',0.27000641,-1.04002365,-0.09997482,27.60005493,0.08200125
'3:01.250',0.27000641,-1.04002365,-0.09997482,27.60005493,0.08200125
'3:01.375',0.27000641,-1.04002365,-0.09997482,27.60005493,0.08200125
'3:01.500',0.28002716,-1.04002365,-0.10999969,27.60005493,0.08200125
'3:01.625',0.27000641,-1.04002365,-0.09997482,27.60005493,0.08400128
'3:01.750',0.27000641,-1.04002365,-0.09997482,27.60005493,0.08200125
'3:01.875',0.28002716,-1.04002365,-0.09997482,27.60005493,0.08200125
'3:02.000',0.27000641,-1.05003723,-0.09997482,27.60005493,0.08200125
'3:02.125',0.27000641,-1.04002365,-0.09997482,27.60005493,0.08200125
'3:02.250',0.27000641,-1.04002365,-0.09997482,27.60005493,0.08400128
'3:02.375',0.28002716,-1.04002365,-0.09997482,27.60005493,0.08400128
'3:02.500',0.28002716,-1.04002365,-0.09997482,27.60005493,0.08400128
'3:02.625',0.28002716,-1.04002365,-0.09997482,27.60005493,0.08400128
'3:02.750',0.27000641,-1.04002365,-0.09997482,27.60005493,0.08200125
'3:02.875',0.28002716,-1.04002365,-0.09997482,27.60005493,0.08200125
'3:03.000',0.28002716,-1.04002365,-0.10999969,27.60005493,0.08200125
'3:03.125',0.27000641,-1.04002365,-0.09997482,27.60005493,0.08200125
'3:03.250',0.28002716,-1.04002365,-0.09997482,27.60005493,0.08200125
'3:03.375',0.27000641,-1.04002365,-0.10999969,27.60005493,0.08400128
'3:03.500',0.28002716,-1.05003723,-0.09997482,27.60005493,0.08400128
'3:03.625',0.28002716,-1.04002365,-0.09997482,27.60005493,0.08400128
'3:03.750',0.28002716,-1.04002365,-0.09997482,27.60005493,0.08400128
'3:03.875',0.28002716,-1.04002365,-0.09997482,27.60005493,0.08200125
'3:04.000',0.27000641,-1.04002365,-0.09997482,27.60005493,0.08200125
'3:04.125',0.27000641,-1.04002365,-0.09997482,27.60005493,0.08400128
'3:04.250',0.28002716,-1.05003723,-0.09997482,27.60005493,0.08200125
'3:04.375',0.28002716,-1.04002365,-0.09997482,27.60005493,0.08400128
'3:04.500',0.27000641,-1.04002365,-0.09997482,27.60005493,0.08200125
'3:04.625',0.28002716,-1.05003723,-0.09997482,27.60005493,0.08400128
'3:04.750',0.28002716,-1.04002365,-0.09997482,27.60005493,0.08400128
'3:04.875',0.28002716,-1.04002365,-0.09997482,27.60005493,0.08400128
'3:05.000',0.28002716,-1.04002365,-0.10999969,27.60005493,0.08400128
'3:05.125',0.27000641,-1.05003723,-0.09997482,27.60005493,0.08400128
'3:05.250',0.27000641,-1.04002365,-0.09997482,27.60005493,0.08200125
'3:05.375',0.28002716,-1.04002365,-0.09997482,27.60005493,0.08400128
'3:05.500',0.28002716,-1.04002365,-0.09997482,27.60005493,0.08400128
'3:05.625',0.27000641,-1.04002365,-0.10999969,27.60005493,0.08400128
'3:05.750',0.28002716,-1.04002365,-0.09997482,27.60005493,0.08400128
'3:05.875',0.29004791,-1.04002365,-0.09997482,27.60005493,0.08400128
'3:06.000',0.27000641,-1.04002365,-0.09997482,27.60005493,0.08400128
'3:06.125',0.28002716,-1.04002365,-0.10999969,27.60005493,0.08200125
'3:06.250',0.28002716,-1.04002365,-0.10999969,27.60005493,0.08200125
'3:06.375',0.28002716,-1.04002365,-0.09997482,27.60005493,0.08400128
'3:06.500',0.27000641,-1.04002365,-0.09997482,27.60005493,0.08400128
'3:06.625',0.28002716,-1.04002365,-0.09997482,27.60005493,0.08400128
'3:06.750',0.28002716,-1.04002365,-0.10999969,27.60005493,0.08200125
'3:06.875',0.28002716,-1.04002365,-0.09997482,27.60005493,0.08200125
'3:07.000',0.28002716,-1.04002365,-0.09997482,27.60005493,0.08400128
'3:07.125',0.28002716,-1.05003723,-0.09997482,27.60005493,0.08400128
'3:07.250',0.28002716,-1.04002365,-0.09997482,27.60005493,0.08200125
'3:07.375',0.28002716,-1.04002365,-0.09997482,27.60005493,0.08400128
'3:07.500',0.27000641,-1.04002365,-0.09997482,27.60005493,0.08400128
'3:07.625',0.27000641,-1.04002365,-0.09997482,27.60005493,0.08400128
'3:07.750',0.28002716,-1.04002365,-0.09997482,27.60005493,0.08400128
'3:07.875',0.28002716,-1.05003723,-0.09997482,27.60005493,0.08400128
'3:08.000',0.28002716,-1.04002365,-0.09997482,27.90009003,0.08600131
'3:08.125',0.28002716,-1.04002365,-0.09997482,27.90009003,0.08400128
'3:08.250',0.28002716,-1.04002365,-0.09997482,27.60005493,0.08400128
'3:08.375',0.27000641,-1.05003723,-0.09997482,27.60005493,0.08400128
'3:08.500',0.28002716,-1.04002365,-0.10999969,27.60005493,0.08400128
'3:08.625',0.28002716,-1.04002365,-0.09997482,27.60005493,0.08600131
'3:08.750',0.28002716,-1.04002365,-0.09997482,27.60005493,0.08400128
'3:08.875',0.28002716,-1.04002365,-0.09997482,27.60005493,0.08600131
'3:09.000',0.28002716,-1.04002365,-0.09997482,27.60005493,0.08400128
'3:09.125',0.28002716,-1.05003723,-0.10999969,27.60005493,0.08400128
'3:09.250',0.28002716,-1.04002365,-0.09997482,27.60005493,0.08200125
'3:09.375',0.28002716,-1.04002365,-0.09997482,27.60005493,0.08200125
'3:09.500',0.28002716,-1.04002365,-0.10999969,27.60005493,0.08400128
'3:09.625',0.27000641,-1.04002365,-0.10999969,27.60005493,0.08400128
'3:09.750',0.28002716,-1.04002365,-0.09997482,27.60005493,0.08200125
'3:09.875',0.27000641,-1.04002365,-0.09997482,27.60005493,0.08600131
'3:10.000',0.27000641,-1.04002365,-0.09997482,27.90009003,0.08200125
'3:10.125',0.28002716,-1.05003723,-0.09997482,27.60005493,0.08400128
'3:10.250',0.28002716,-1.04002365,-0.09997482,27.60005493,0.08400128
'3:10.375',0.28002716,-1.04002365,-0.09997482,27.60005493,0.08400128
'3:10.500',0.28002716,-1.04002365,-0.09997482,27.90009003,0.08600131
'3:10.625',0.28002716,-1.05003723,-0.09997482,27.90009003,0.08400128
'3:10.750',0.28002716,-1.04002365,-0.09997482,27.90009003,0.08600131
'3:10.875',0.28002716,-1.04002365,-0.10999969,27.60005493,0.08400128
'3:11.000',0.28002716,-1.04002365,-0.10999969,27.60005493,0.08400128
'3:11.125',0.28002716,-1.04002365,-0.09997482,27.90009003,0.08400128
'3:11.250',0.28002716,-1.04002365,-0.10999969,27.90009003,0.08400128
'3:11.375',0.27000641,-1.04002365,-0.09997482,27.60005493,0.08600131
'3:11.500',0.28002716,-1.04002365,-0.09997482,27.60005493,0.08400128
'3:11.625',0.28002716,-1.04002365,-0.10999969,27.60005493,0.08400128
'3:11.750',0.28002716,-1.05003723,-0.09997482,27.60005493,0.08400128
'3:11.875',0.28002716,-1.04002365,-0.09997482,27.90009003,0.08400128
'3:12.000',0.28002716,-1.04002365,-0.09997482,27.60005493,0.08400128
'3:12.125',0.28002716,-1.04002365,-0.09997482,27.90009003,0.08600131
'3:12.250',0.28002716,-1.04002365,-0.09997482,27.90009003,0.08600131
'3:12.375',0.27000641,-1.04002365,-0.09997482,27.90009003,0.08600131
'3:12.500',0.27000641,-1.04002365,-0.09997482,27.90009003,0.08600131
'3:12.625',0.27000641,-1.04002365,-0.09997482,27.90009003,0.08600131
'3:12.750',0.28002716,-1.04002365,-0.09997482,27.60005493,0.08600131
'3:12.875',0.28002716,-1.04002365,-0.09997482,27.60005493,0.08600131
'3:13.000',0.28002716,-1.04002365,-0.09997482,27.90009003,0.08600131
'3:13.125',0.27000641,-1.04002365,-0.09997482,27.90009003,0.08400128
'3:13.250',0.28002716,-1.05003723,-0.09997482,27.90009003,0.08400128
'3:13.375',0.28002716,-1.04002365,-0.09997482,27.90009003,0.08600131
'3:13.500',0.28002716,-1.05003723,-0.09997482,27.60005493,0.08400128
'3:13.625',0.27000641,-1.04002365,-0.09997482,27.60005493,0.08600131
'3:13.750',0.28002716,-1.04002365,-0.09997482,27.90009003,0.08600131
'3:13.875',0.28002716,-1.04002365,-0.09997482,27.90009003,0.08600131
'3:14.000',0.27000641,-1.04002365,-0.09997482,27.90009003,0.08600131
'3:14.125',0.28002716,-1.04002365,-0.09997482,27.90009003,0.08600131
'3:14.250',0.28002716,-1.05003723,-0.09997482,27.90009003,0.08400128
'3:14.375',0.27000641,-1.04002365,-0.09997482,27.90009003,0.08600131
'3:14.500',0.28002716,-1.04002365,-0.09997482,27.90009003,0.08600131
'3:14.625',0.27000641,-1.04002365,-0.09997482,27.90009003,0.08600131
'3:14.750',0.27000641,-1.04002365,-0.09997482,27.90009003,0.08600131
'3:14.875',0.28002716,-1.04002365,-0.10999969,27.90009003,0.08600131
'3:15.000',0.28002716,-1.04002365,-0.10999969,27.90009003,0.08600131
'3:15.125',0.28002716,-1.04002365,-0.09997482,27.90009003,0.08600131
'3:15.250',0.28002716,-1.04002365,-0.09997482,27.90009003,0.08600131
'3:15.375',0.28002716,-1.04002365,-0.09997482,27.90009003,0.08600131
'3:15.500',0.28002716,-1.05003723,-0.09997482,27.90009003,0.08600131
'3:15.625',0.28002716,-1.04002365,-0.10999969,27.90009003,0.08600131
'3:15.750',0.28002716,-1.05003723,-0.09997482,27.60005493,0.08600131
'3:15.875',0.27000641,-1.04002365,-0.09997482,27.90009003,0.08600131
'3:16.000',0.28002716,-1.04002365,-0.09997482,27.90009003,0.08600131
'3:16.125',0.28002716,-1.04002365,-0.09997482,27.60005493,0.08600131
'3:16.250',0.28002716,-1.04002365,-0.09997482,27.90009003,0.08600131
'3:16.375',0.28002716,-1.04002365,-0.10999969,27.90009003,0.08600131
'3:16.500',0.28002716,-1.04002365,-0.09997482,27.60005493,0.08600131
'3:16.625',0.28002716,-1.04002365,-0.09997482,27.90009003,0.08600131
'3:16.750',0.28002716,-1.04002365,-0.10999969,27.90009003,0.08600131
'3:16.875',0.28002716,-1.04002365,-0.09997482,27.90009003,0.08600131
'3:17.000',0.28002716,-1.04002365,-0.09997482,27.90009003,0.08600131
'3:17.125',0.28002716,-1.04002365,-0.09997482,27.90009003,0.08600131
'3:17.250',0.28002716,-1.04002365,-0.10999969,27.90009003,0.08600131
'3:17.375',0.27000641,-1.04002365,-0.09997482,27.90009003,0.08600131
'3:17.500',0.28002716,-1.04002365,-0.10999969,27.90009003,0.08600131
'3:17.625',0.27000641,-1.04002365,-0.10999969,27.90009003,0.08600131
'3:17.750',0.28002716,-1.04002365,-0.09997482,27.90009003,0.08600131
'3:17.875',0.28002716,-1.04002365,-0.09997482,27.90009003,0.08600131
'3:18.000',0.27000641,-1.04002365,-0.10999969,27.90009003,0.08600131
'3:18.125',0.27000641,-1.04002365,-0.09997482,27.90009003,0.08600131
'3:18.250',0.28002716,-1.05003723,-0.09997482,27.90009003,0.08600131
'3:18.375',0.28002716,-1.04002365,-0.09997482,27.90009003,0.08600131
'3:18.500',0.28002716,-1.04002365,-0.10999969,27.90009003,0.08600131
'3:18.625',0.27000641,-1.04002365,-0.10999969,27.90009003,0.08600131
'3:18.750',0.28002716,-1.05003723,-0.09997482,27.90009003,0.08600131
'3:18.875',0.28002716,-1.05003723,-0.10999969,27.90009003,0.08600131
'3:19.000',0.28002716,-1.04002365,-0.09997482,27.90009003,0.08600131
'3:19.125',0.28002716,-1.05003723,-0.09997482,27.90009003,0.08600131
'3:19.250',0.28002716,-1.04002365,-0.09997482,27.90009003,0.08600131
'3:19.375',0.28002716,-1.04002365,-0.09997482,27.90009003,0.08600131
'3:19.500',0.28002716,-1.04002365,-0.09997482,27.90009003,0.08600131
'3:19.625',0.28002716,-1.04002365,-0.10999969,27.90009003,0.08600131
'3:19.750',0.27000641,-1.04002365,-0.10999969,27.90009003,0.08600131
'3:19.875',0.27000641,-1.04002365,-0.09997482,27.90009003,0.08600131
'3:20.000',0.28002716,-1.04002365,-0.09997482,27.60005493,0.08600131
'3:20.125',0.28002716,-1.04002365,-0.09997482,27.90009003,0.08600131
'3:20.250',0.28002716,-1.04002365,-0.09997482,27.90009003,0.08600131
'3:20.375',0.28002716,-1.04002365,-0.09997482,27.90009003,0.08600131
'3:20.500',0.28002716,-1.04002365,-0.09997482,27.90009003,0.08600131
'3:20.625',0.27000641,-1.04002365,-0.10999969,27.90009003,0.08600131
'3:20.750',0.27000641,-1.04002365,-0.09997482,27.90009003,0.08600131
'3:20.875',0.27000641,-1.04002365,-0.09997482,27.90009003,0.08600131
'3:21.000',0.27000641,-1.04002365,-0.09997482,27.90009003,0.08600131
'3:21.125',0.28002716,-1.04002365,-0.09997482,27.90009003,0.08600131
'3:21.250',0.28002716,-1.04002365,-0.09997482,27.90009003,0.08600131
'3:21.375',0.28002716,-1.04002365,-0.09997482,27.90009003,0.08600131
'3:21.500',0.28002716,-1.04002365,-0.09997482,27.90009003,0.08600131
'3:21.625',0.28002716,-1.04002365,-0.09997482,27.90009003,0.08600131
'3:21.750',0.28002716,-1.04002365,-0.09997482,27.90009003,0.08600131
'3:21.875',0.27000641,-1.05003723,-0.10999969,27.90009003,0.08600131
'3:22.000',0.27000641,-1.04002365,-0.09997482,27.90009003,0.08600131
'3:22.125',0.28002716,-1.04002365,-0.09997482,27.90009003,0.08600131
'3:22.250',0.28002716,-1.04002365,-0.10999969,27.90009003,0.08600131
'3:22.375',0.27000641,-1.04002365,-0.09997482,27.90009003,0.08600131
'3:22.500',0.27000641,-1.04002365,-0.09997482,27.90009003,0.08600131
'3:22.625',0.27000641,-1.04002365,-0.09997482,28.10004730,0.08600131
'3:22.750',0.28002716,-1.05003723,-0.10999969,28.10004730,0.08600131
'3:22.875',0.27000641,-1.04002365,-0.10999969,28.10004730,0.08800134
'3:23.000',0.28002716,-1.05003723,-0.09997482,28.10004730,0.08800134
'3:23.125',0.28002716,-1.04002365,-0.10999969,28.10004730,0.08600131
'3:23.250',0.26003601,-1.05003723,-0.10999969,27.90009003,0.08600131
'3:23.375',0.28002716,-1.04002365,-0.09997482,27.90009003,0.08800134
'3:23.500',0.27000641,-1.04002365,-0.09997482,27.90009003,0.08600131
'3:23.625',0.28002716,-1.04002365,-0.09997482,27.90009003,0.08600131
'3:23.750',0.28002716,-1.04002365,-0.10999969,27.90009003,0.08600131
'3:23.875',0.27000641,-1.04002365,-0.09997482,27.90009003,0.08600131
'3:24.000',0.27000641,-1.04002365,-0.10999969,27.90009003,0.08600131
'3:24.125',0.28002716,-1.04002365,-0.09997482,27.90009003,0.08600131
'3:24.250',0.27000641,-1.04002365,-0.09997482,27.90009003,0.08600131
'3:24.375',0.28002716,-1.04002365,-0.09997482,27.90009003,0.08600131
'3:24.500',0.28002716,-1.04002365,-0.09997482,27.90009003,0.08600131
'3:24.625',0.28002716,-1.04002365,-0.10999969,27.90009003,0.08600131
'3:24.750',0.28002716,-1.04002365,-0.09997482,27.90009003,0.08600131
'3:24.875',0.27000641,-1.04002365,-0.09997482,27.90009003,0.08600131
'3:25.000',0.27000641,-1.04002365,-0.10999969,27.90009003,0.08600131
'3:25.125',0.28002716,-1.04002365,-0.09997482,27.90009003,0.08600131
'3:25.250',0.27000641,-1.05003723,-0.10999969,27.90009003,0.08600131
'3:25.375',0.28002716,-1.05003723,-0.09997482,27.90009003,0.08600131
'3:25.500',0.27000641,-1.04002365,-0.09997482,27.90009003,0.08600131
'3:25.625',0.28002716,-1.04002365,-0.09997482,27.90009003,0.08600131
'3:25.750',0.28002716,-1.04002365,-0.09997482,27.90009003,0.08800134
'3:25.875',0.27000641,-1.04002365,-0.09997482,27.90009003,0.08600131
'3:26.000',0.28002716,-1.04002365,-0.09997482,27.90009003,0.08600131
'3:26.125',0.28002716,-1.04002365,-0.09997482,27.90009003,0.08600131
'3:26.250',0.28002716,-1.04002365,-0.09997482,27.90009003,0.08600131
'3:26.375',0.28002716,-1.04002365,-0.09997482,27.90009003,0.08800134
'3:26.500',0.27000641,-1.04002365,-0.09997482,27.90009003,0.08600131
'3:26.625',0.28002716,-1.04002365,-0.10999969,27.90009003,0.08600131
'3:26.750',0.28002716,-1.04002365,-0.10999969,27.90009003,0.08600131
'3:26.875',0.28002716,-1.04002365,-0.09997482,27.90009003,0.08600131
'3:27.000',0.28002716,-1.04002365,-0.09997482,27.90009003,0.08600131
'3:27.125',0.27000641,-1.04002365,-0.09997482,27.90009003,0.08800134
'3:27.250',0.28002716,-1.04002365,-0.09997482,27.90009003,0.09000137
'3:27.375',0.28002716,-1.04002365,-0.09997482,27.90009003,0.08600131
'3:27.500',0.27000641,-1.04002365,-0.10999969,27.90009003,0.08600131
'3:27.625',0.28002716,-1.04002365,-0.10999969,27.90009003,0.08600131
'3:27.750',0.27000641,-1.04002365,-0.09997482,27.90009003,0.08800134
'3:27.875',0.28002716,-1.04002365,-0.10999969,27.90009003,0.08600131
'3:28.000',0.28002716,-1.04002365,-0.09997482,27.90009003,0.08800134
'3:28.125',0.27000641,-1.04002365,-0.10999969,27.90009003,0.08600131
'3:28.250',0.27000641,-1.04002365,-0.09997482,27.90009003,0.08800134
'3:28.375',0.27000641,-1.04002365,-0.10999969,27.90009003,0.08600131
'3:28.500',0.27000641,-1.04002365,-0.09997482,27.90009003,0.08600131
'3:28.625',0.28002716,-1.04002365,-0.09997482,27.90009003,0.08800134
'3:28.750',0.27000641,-1.04002365,-0.09997482,27.90009003,0.09000137
'3:28.875',0.27000641,-1.04002365,-0.09997482,27.90009003,0.08800134
'3:29.000',0.28002716,-1.04002365,-0.09997482,27.90009003,0.08600131
'3:29.125',0.27000641,-1.04002365,-0.10999969,27.90009003,0.08800134
'3:29.250',0.27000641,-1.04002365,-0.09997482,27.90009003,0.08600131
'3:29.375',0.28002716,-1.05003723,-0.09997482,28.10004730,0.08600131
'3:29.500',0.27000641,-1.05003723,-0.09997482,27.90009003,0.08600131
'3:29.625',0.27000641,-1.04002365,-0.09997482,27.90009003,0.08800134
'3:29.750',0.28002716,-1.04002365,-0.09997482,27.90009003,0.08600131
'3:29.875',0.28002716,-1.04002365,-0.09997482,27.90009003,0.08800134
'3:30.000',0.28002716,-1.05003723,-0.10999969,27.90009003,0.08800134
'3:30.125',0.27000641,-1.05003723,-0.09997482,27.90009003,0.08600131
'3:30.250',0.28002716,-1.04002365,-0.09997482,27.90009003,0.08800134
'3:30.375',0.27000641,-1.04002365,-0.09997482,27.90009003,0.08600131
'3:30.500',0.28002716,-1.04002365,-0.10999969,27.90009003,0.08600131
'3:30.625',0.28002716,-1.05003723,-0.09997482,27.90009003,0.08800134
'3:30.750',0.28002716,-1.04002365,-0.09997482,27.90009003,0.08800134
'3:30.875',0.28002716,-1.04002365,-0.10999969,27.90009003,0.08600131
'3:31.000',0.27000641,-1.04002365,-0.09997482,27.90009003,0.09000137
'3:31.125',0.27000641,-1.04002365,-0.10999969,27.90009003,0.09000137
'3:31.250',0.27000641,-1.04002365,-0.09997482,27.90009003,0.08600131
'3:31.375',0.27000641,-1.04002365,-0.09997482,27.90009003,0.09000137
'3:31.500',0.28002716,-1.04002365,-0.09997482,27.90009003,0.09000137
'3:31.625',0.27000641,-1.04002365,-0.09997482,27.90009003,0.08800134
'3:31.750',0.27000641,-1.04002365,-0.09997482,27.90009003,0.08800134
'3:31.875',0.28002716,-1.04002365,-0.09997482,27.90009003,0.08800134
'3:32.000',0.27000641,-1.04002365,-0.10999969,27.90009003,0.09000137
'3:32.125',0.27000641,-1.04002365,-0.09997482,27.90009003,0.09000137
'3:32.250',0.28002716,-1.05003723,-0.09997482,27.90009003,0.08800134
'3:32.375',0.27000641,-1.04002365,-0.09997482,27.90009003,0.09000137
'3:32.500',0.27000641,-1.04002365,-0.09997482,27.90009003,0.08600131
'3:32.625',0.28002716,-1.04002365,-0.09997482,27.90009003,0.08800134
'3:32.750',0.28002716,-1.04002365,-0.09997482,27.90009003,0.09000137
'3:32.875',0.27000641,-1.04002365,-0.09997482,27.90009003,0.08800134
'3:33.000',0.28002716,-1.04002365,-0.09997482,27.90009003,0.09000137
'3:33.125',0.27000641,-1.04002365,-0.09997482,28.10004730,0.09000137
'3:33.250',0.28002716,-1.04002365,-0.10999969,27.90009003,0.09000137
'3:33.375',0.27000641,-1.04002365,-0.09997482,27.90009003,0.08800134
'3:33.500',0.27000641,-1.04002365,-0.09997482,28.10004730,0.09000137
'3:33.625',0.28002716,-1.04002365,-0.09997482,27.90009003,0.09000137
'3:33.750',0.27000641,-1.04002365,-0.10999969,28.10004730,0.09000137
'3:33.875',0.28002716,-1.04002365,-0.09997482,27.90009003,0.08800134
'3:34.000',0.28002716,-1.04002365,-0.09997482,28.10004730,0.08600131
'3:34.125',0.27000641,-1.04002365,-0.09997482,27.90009003,0.09000137
'3:34.250',0.28002716,-1.04002365,-0.09997482,27.90009003,0.08800134
'3:34.375',0.28002716,-1.04002365,-0.09997482,28.10004730,0.08800134
'3:34.500',0.27000641,-1.04002365,-0.09997482,27.90009003,0.09000137
'3:34.625',0.28002716,-1.04002365,-0.10999969,28.10004730,0.09000137
'3:34.750',0.27000641,-1.05003723,-0.09997482,27.90009003,0.09000137
'3:34.875',0.27000641,-1.05003723,-0.09997482,28.10004730,0.08800134
'3:35.000',0.27000641,-1.04002365,-0.10999969,27.90009003,0.09000137
'3:35.125',0.27000641,-1.04002365,-0.10999969,27.90009003,0.08800134
'3:35.250',0.28002716,-1.04002365,-0.09997482,28.10004730,0.09000137
'3:35.375',0.27000641,-1.04002365,-0.10999969,27.90009003,0.09000137
'3:35.500',0.28002716,-1.04002365,-0.09997482,27.90009003,0.09000137
'3:35.625',0.28002716,-1.04002365,-0.09997482,27.90009003,0.09000137
'3:35.750',0.28002716,-1.04002365,-0.09997482,27.90009003,0.08800134
'3:35.875',0.28002716,-1.04002365,-0.09997482,28.10004730,0.09000137
'3:36.000',0.27000641,-1.05003723,-0.09997482,27.90009003,0.09000137
'3:36.125',0.28002716,-1.04002365,-0.09997482,27.90009003,0.09000137
