Elapsed time,ax,ay,az,temp,EDA
'0:00.000',0.55996963,-0.97999588,-0.02002319,26.00004883,0.46503568
'0:00.125',0.58997009,-0.97999588,-0.03003479,26.00004883,0.46503568
'0:00.250',0.56996979,-0.96996704,-0.01001160,26.00004883,0.46503568
'0:00.375',0.56996979,-0.96996704,-0.02002319,26.00004883,0.46503568
'0:00.500',0.58997009,-0.96996704,-0.04000931,25.80000458,0.46001453
'0:00.625',0.58997009,-0.95997314,-0.03003479,26.00004883,0.46107669
'0:00.750',0.60997040,-0.96996704,-0.04000931,26.00004883,0.45702115
'0:00.875',0.58997009,-0.96996704,-0.03003479,26.00004883,0.45904892
'0:01.000',0.57996994,-0.96996704,-0.03003479,26.00004883,0.45904892
'0:01.125',0.58997009,-0.96996704,-0.02002319,26.00004883,0.45904892
'0:01.250',0.58997009,-0.96996704,-0.04000931,26.20009308,0.45605554
'0:01.375',0.58997009,-0.96996704,-0.03003479,26.20009308,0.45508994
'0:01.500',0.58997009,-0.96996704,-0.04000931,26.20009308,0.45605554
'0:01.625',0.57996994,-0.96996704,-0.03003479,26.20009308,0.45508994
'0:01.750',0.58997009,-0.96996704,-0.03003479,26.00004883,0.45702115
'0:01.875',0.58997009,-0.96996704,-0.03003479,26.00004883,0.45508994
'0:02.000',0.59997024,-0.95997314,-0.04000931,26.00004883,0.45508994
'0:02.125',0.59997024,-0.95997314,-0.04000931,26.00004883,0.45200000
'0:02.250',0.58997009,-0.96996704,-0.03003479,26.00004883,0.45200000
'0:02.375',0.58997009,-0.96996704,-0.03003479,26.00004883,0.45200000
'0:02.500',0.59997024,-0.95997314,-0.03003479,26.00004883,0.45200000
'0:02.625',0.59997024,-0.95997314,-0.04000931,26.00004883,0.45200000
'0:02.750',0.60997040,-0.95997314,-0.04000931,26.00004883,0.45200000
'0:02.875',0.60997040,-0.95997314,-0.03003479,26.00004883,0.45200000
'0:03.000',0.60997040,-0.95997314,-0.03003479,26.00004883,0.45200000
'0:03.125',0.60997040,-0.95997314,-0.03003479,26.00004883,0.45200000
'0:03.250',0.60997040,-0.95997314,-0.04000931,26.00004883,0.45200000
'0:03.375',0.60997040,-0.95997314,-0.04000931,26.00004883,0.45200000
'0:03.500',0.59997024,-0.95997314,-0.03003479,26.00004883,0.45006879
'0:03.625',0.60997040,-0.95997314,-0.03003479,26.00004883,0.45006879
'0:03.750',0.60997040,-0.95997314,-0.03003479,26.00004883,0.44601325
'0:03.875',0.59997024,-0.95997314,-0.03003479,26.00004883,0.44601325
'0:04.000',0.59997024,-0.95997314,-0.04000931,26.00004883,0.44601325
'0:04.125',0.60997040,-0.95997314,-0.03003479,26.00004883,0.44601325
'0:04.250',0.59997024,-0.95997314,-0.03003479,26.00004883,0.44504764
'0:04.375',0.59997024,-0.95997314,-0.03003479,26.00004883,0.44504764
'0:04.500',0.58997009,-0.95997314,-0.04000931,26.20009308,0.44601325
'0:04.625',0.61997055,-0.95997314,-0.04000931,26.00004883,0.44601325
'0:04.750',0.61997055,-0.95997314,-0.03003479,26.00004883,0.44601325
'0:04.875',0.61997055,-0.95997314,-0.03003479,26.00004883,0.44601325
'0:05.000',0.62997070,-0.95997314,-0.03003479,26.00004883,0.44601325
'0:05.125',0.61997055,-0.95997314,-0.04000931,26.00004883,0.44601325
'0:05.250',0.61997055,-0.95997314,-0.03003479,26.00004883,0.44601325
'0:05.375',0.61997055,-0.95997314,-0.04000931,26.00004883,0.44301987
'0:05.500',0.60997040,-0.95997314,-0.03003479,26.20009308,0.44301987
'0:05.625',0.61997055,-0.95997314,-0.03003479,26.00004883,0.44601325
'0:05.750',0.60997040,-0.95997314,-0.04000931,26.20009308,0.44301987
'0:05.875',0.60997040,-0.95997314,-0.03003479,26.20009308,0.44301987
'0:06.000',0.61997055,-0.95997314,-0.03003479,26.20009308,0.44002649
'0:06.125',0.60997040,-0.95997314,-0.03003479,26.00004883,0.44002649
'0:06.250',0.60997040,-0.94997925,-0.03003479,26.20009308,0.44002649
'0:06.375',0.61997055,-0.95997314,-0.03003479,26.20009308,0.44002649
'0:06.500',0.61997055,-0.94997925,-0.03003479,26.20009308,0.44002649
'0:06.625',0.61997055,-0.95997314,-0.03003479,26.20009308,0.44002649
'0:06.750',0.61997055,-0.95997314,-0.03003479,26.20009308,0.44002649
'0:06.875',0.60997040,-0.95997314,-0.03003479,26.20009308,0.44002649
'0:07.000',0.61997055,-0.95997314,-0.03003479,26.20009308,0.44002649
'0:07.125',0.61997055,-0.95997314,-0.03003479,26.20009308,0.43403974
'0:07.250',0.61997055,-0.94997925,-0.03003479,26.20009308,0.44002649
'0:07.375',0.61997055,-0.95997314,-0.03003479,26.20009308,0.43403974
'0:07.500',0.61997055,-0.94997925,-0.03003479,26.20009308,0.43403974
'0:07.625',0.61997055,-0.94997925,-0.04000931,26.20009308,0.43809528
'0:07.750',0.60997040,-0.95997314,-0.03003479,26.20009308,0.43403974
'0:07.875',0.60997040,-0.95997314,-0.03003479,26.20009308,0.43403974
'0:08.000',0.60997040,-0.95997314,-0.04000931,26.20009308,0.43403974
'0:08.125',0.60997040,-0.95997314,-0.03003479,26.20009308,0.43403974
'0:08.250',0.61997055,-0.94997925,-0.03003479,26.20009308,0.43403974
'0:08.375',0.62997070,-0.95997314,-0.03003479,26.20009308,0.43403974
'0:08.500',0.61997055,-0.94997925,-0.03003479,26.20009308,0.42708737
'0:08.625',0.61997055,-0.94997925,-0.04000931,26.20009308,0.42805298
'0:08.750',0.61997055,-0.94997925,-0.04000931,26.20009308,0.43201196
'0:08.875',0.61997055,-0.94997925,-0.03003479,26.20009308,0.42805298
'0:09.000',0.62997070,-0.94997925,-0.03003479,26.20009308,0.42708737
'0:09.125',0.62997070,-0.95997314,-0.03003479,26.20009308,0.42805298
'0:09.250',0.61997055,-0.94997925,-0.04000931,26.20009308,0.42805298
'0:09.375',0.61997055,-0.94997925,-0.04000931,26.20009308,0.42805298
'0:09.500',0.61997055,-0.95997314,-0.03003479,26.20009308,0.42805298
'0:09.625',0.61997055,-0.95997314,-0.03003479,26.20009308,0.42805298
'0:09.750',0.61997055,-0.94997925,-0.03003479,26.20009308,0.42805298
'0:09.875',0.61997055,-0.94997925,-0.03003479,26.20009308,0.42805298
'0:10.000',0.61997055,-0.94997925,-0.04000931,26.20009308,0.42805298
'0:10.125',0.61997055,-0.95997314,-0.04000931,26.20009308,0.42805298
'0:10.250',0.60997040,-0.95997314,-0.03003479,26.20009308,0.42505960
'0:10.375',0.60997040,-0.95997314,-0.03003479,26.20009308,0.42505960
'0:10.500',0.60997040,-0.95997314,-0.03003479,26.20009308,0.42505960
'0:10.625',0.60997040,-0.95997314,-0.04000931,26.20009308,0.42206623
'0:10.750',0.60997040,-0.95997314,-0.03003479,26.20009308,0.42206623
'0:10.875',0.60997040,-0.95997314,-0.04000931,26.20009308,0.42206623
'0:11.000',0.60997040,-0.95997314,-0.03003479,26.20009308,0.42206623
'0:11.125',0.60997040,-0.95997314,-0.04000931,26.20009308,0.42206623
'0:11.250',0.61997055,-0.95997314,-0.03003479,26.40000153,0.42206623
'0:11.375',0.60997040,-0.95997314,-0.03003479,26.20009308,0.42206623
'0:11.500',0.60997040,-0.95997314,-0.03003479,26.20009308,0.41907285
'0:11.625',0.60997040,-0.95997314,-0.03003479,26.20009308,0.42003845
'0:11.750',0.60997040,-0.95997314,-0.03003479,26.20009308,0.41704508
'0:11.875',0.61997055,-0.95997314,-0.03003479,26.40000153,0.42003845
'0:12.000',0.60997040,-0.94997925,-0.03003479,26.40000153,0.41704508
'0:12.125',0.61997055,-0.94997925,-0.04000931,26.20009308,0.41704508
'0:12.250',0.61997055,-0.94997925,-0.03003479,26.40000153,0.41704508
'0:12.375',0.61997055,-0.95997314,-0.03003479,26.40000153,0.41704508
'0:12.500',0.60997040,-0.94997925,-0.03003479,26.40000153,0.41704508
'0:12.625',0.60997040,-0.95997314,-0.03003479,26.40000153,0.41704508
'0:12.750',0.60997040,-0.94997925,-0.04000931,26.40000153,0.41704508
'0:12.875',0.60997040,-0.95997314,-0.03003479,26.40000153,0.41308609
'0:13.000',0.60997040,-0.95997314,-0.03003479,26.40000153,0.41405170
'0:13.125',0.60997040,-0.95997314,-0.03003479,26.40000153,0.41308609
'0:13.250',0.60997040,-0.95997314,-0.04000931,26.40000153,0.41105832
'0:13.375',0.60997040,-0.95997314,-0.04000931,26.40000153,0.41105832
'0:13.500',0.59997024,-0.95997314,-0.03003479,26.40000153,0.41105832
'0:13.625',0.60997040,-0.95997314,-0.03003479,26.40000153,0.41009272
'0:13.750',0.60997040,-0.95997314,-0.03003479,26.40000153,0.41105832
'0:13.875',0.60997040,-0.95997314,-0.03003479,26.40000153,0.40700278
'0:14.000',0.60997040,-0.95997314,-0.03003479,26.40000153,0.40806494
'0:14.125',0.59997024,-0.95997314,-0.03003479,26.40000153,0.40806494
'0:14.250',0.59997024,-0.95997314,-0.04000931,26.40000153,0.40806494
'0:14.375',0.60997040,-0.95997314,-0.04000931,26.40000153,0.40806494
'0:14.500',0.60997040,-0.95997314,-0.04000931,26.40000153,0.40806494
'0:14.625',0.59997024,-0.95997314,-0.03003479,26.40000153,0.40806494
'0:14.750',0.60997040,-0.95997314,-0.03003479,26.40000153,0.40806494
'0:14.875',0.59997024,-0.95997314,-0.03003479,26.40000153,0.40806494
'0:15.000',0.60997040,-0.95997314,-0.03003479,26.40000153,0.40400940
'0:15.125',0.60997040,-0.95997314,-0.04000931,26.40000153,0.40400940
'0:15.250',0.60997040,-0.95997314,-0.03003479,26.40000153,0.40507157
'0:15.375',0.61997055,-0.95997314,-0.03003479,26.40000153,0.40507157
'0:15.500',0.60997040,-0.95997314,-0.03003479,26.60004578,0.40507157
'0:15.625',0.61997055,-0.95997314,-0.04000931,26.40000153,0.40507157
'0:15.750',0.61997055,-0.95997314,-0.03003479,26.40000153,0.40400940
'0:15.875',0.60997040,-0.95997314,-0.04000931,26.40000153,0.40507157
'0:16.000',0.60997040,-0.95997314,-0.04000931,26.60004578,0.40507157
'0:16.125',0.60997040,-0.95997314,-0.03003479,26.40000153,0.40101602
'0:16.250',0.60997040,-0.95997314,-0.03003479,26.40000153,0.40507157
'0:16.375',0.59997024,-0.95997314,-0.03003479,26.40000153,0.39908481
'0:16.500',0.60997040,-0.95997314,-0.03003479,26.40000153,0.39908481
'0:16.625',0.60997040,-0.95997314,-0.03003479,26.40000153,0.39802264
'0:16.750',0.60997040,-0.95997314,-0.03003479,26.60004578,0.39908481
'0:16.875',0.59997024,-0.95997314,-0.03003479,26.60004578,0.39802264
'0:17.000',0.59997024,-0.95997314,-0.03003479,26.40000153,0.39908481
'0:17.125',0.59997024,-0.95997314,-0.04000931,26.60004578,0.39908481
'0:17.250',0.59997024,-0.95997314,-0.03003479,26.40000153,0.39908481
'0:17.375',0.59997024,-0.95997314,-0.03003479,26.60004578,0.39908481
'0:17.500',0.59997024,-0.95997314,-0.03003479,26.60004578,0.39609143
'0:17.625',0.60997040,-0.95997314,-0.03003479,26.60004578,0.39705704
'0:17.750',0.60997040,-0.95997314,-0.03003479,26.60004578,0.39705704
'0:17.875',0.59997024,-0.95997314,-0.04000931,26.60004578,0.39300150
'0:18.000',0.59997024,-0.95997314,-0.03003479,26.40000153,0.39300150
'0:18.125',0.59997024,-0.95997314,-0.03003479,26.60004578,0.39300150
'0:18.250',0.60997040,-0.95997314,-0.03003479,26.60004578,0.39300150
'0:18.375',0.59997024,-0.95997314,-0.03003479,26.60004578,0.39300150
'0:18.500',0.60997040,-0.95997314,-0.03003479,26.60004578,0.39300150
'0:18.625',0.59997024,-0.95997314,-0.03003479,26.60004578,0.39300150
'0:18.750',0.59997024,-0.95997314,-0.03003479,26.60004578,0.39300150
'0:18.875',0.60997040,-0.95997314,-0.03003479,26.60004578,0.39300150
'0:19.000',0.59997024,-0.95997314,-0.03003479,26.60004578,0.39107028
'0:19.125',0.59997024,-0.95997314,-0.03003479,26.60004578,0.39000812
'0:19.250',0.59997024,-0.95997314,-0.03003479,26.60004578,0.39107028
'0:19.375',0.60997040,-0.95997314,-0.03003479,26.60004578,0.38701474
'0:19.500',0.60997040,-0.95997314,-0.03003479,26.60004578,0.39107028
'0:19.625',0.59997024,-0.96996704,-0.03003479,26.60004578,0.39107028
'0:19.750',0.59997024,-0.95997314,-0.03003479,26.60004578,0.38701474
'0:19.875',0.59997024,-0.95997314,-0.03003479,26.60004578,0.38701474
'0:20.000',0.59997024,-0.95997314,-0.03003479,26.60004578,0.38701474
'0:20.125',0.59997024,-0.95997314,-0.03003479,26.60004578,0.38701474
'0:20.250',0.59997024,-0.95997314,-0.03003479,26.60004578,0.38701474
'0:20.375',0.59997024,-0.95997314,-0.03003479,26.60004578,0.38701474
'0:20.500',0.59997024,-0.95997314,-0.03003479,26.60004578,0.38701474
'0:20.625',0.59997024,-0.95997314,-0.04000931,26.60004578,0.38701474
'0:20.750',0.59997024,-0.95997314,-0.03003479,26.60004578,0.38701474
'0:20.875',0.59997024,-0.95997314,-0.03003479,26.60004578,0.38701474
'0:21.000',0.60997040,-0.95997314,-0.03003479,26.60004578,0.38701474
'0:21.125',0.60997040,-0.95997314,-0.03003479,26.60004578,0.38402136
'0:21.250',0.60997040,-0.95997314,-0.03003479,26.60004578,0.38508353
'0:21.375',0.59997024,-0.95997314,-0.04000931,26.60004578,0.38402136
'0:21.500',0.60997040,-0.95997314,-0.03003479,26.60004578,0.38209015
'0:21.625',0.59997024,-0.95997314,-0.03003479,26.60004578,0.38209015
'0:21.750',0.59997024,-0.95997314,-0.04000931,26.60004578,0.38209015
'0:21.875',0.59997024,-0.95997314,-0.03003479,26.60004578,0.38209015
'0:22.000',0.59997024,-0.95997314,-0.03003479,26.60004578,0.38209015
'0:22.125',0.59997024,-0.95997314,-0.03003479,26.60004578,0.38102799
'0:22.250',0.59997024,-0.96996704,-0.03003479,26.60004578,0.38209015
'0:22.375',0.59997024,-0.96996704,-0.03003479,26.60004578,0.37900021
'0:22.500',0.58997009,-0.95997314,-0.03003479,26.60004578,0.37900021
'0:22.625',0.59997024,-0.95997314,-0.03003479,26.60004578,0.37900021
'0:22.750',0.58997009,-0.95997314,-0.03003479,26.60004578,0.37803461
'0:22.875',0.59997024,-0.96996704,-0.03003479,26.80009003,0.37600684
'0:23.000',0.59997024,-0.95997314,-0.03003479,26.60004578,0.38209015
'0:23.125',0.59997024,-0.95997314,-0.03003479,26.60004578,0.37900021
'0:23.250',0.59997024,-0.95997314,-0.03003479,26.60004578,0.37600684
'0:23.375',0.59997024,-0.95997314,-0.03003479,26.60004578,0.37600684
'0:23.500',0.59997024,-0.95997314,-0.03003479,26.60004578,0.37600684
'0:23.625',0.59997024,-0.95997314,-0.03003479,26.80009003,0.37600684
'0:23.750',0.59997024,-0.95997314,-0.03003479,26.80009003,0.37600684
'0:23.875',0.60997040,-0.95997314,-0.03003479,26.60004578,0.37407562
'0:24.000',0.60997040,-0.95997314,-0.03003479,26.80009003,0.37600684
'0:24.125',0.59997024,-0.95997314,-0.03003479,26.80009003,0.37407562
'0:24.250',0.59997024,-0.95997314,-0.03003479,26.80009003,0.37407562
'0:24.375',0.59997024,-0.95997314,-0.03003479,26.60004578,0.37407562
'0:24.500',0.59997024,-0.95997314,-0.03003479,26.80009003,0.37407562
'0:24.625',0.59997024,-0.95997314,-0.03003479,26.80009003,0.37407562
'0:24.750',0.59997024,-0.95997314,-0.03003479,26.80009003,0.37002008
'0:24.875',0.59997024,-0.95997314,-0.03003479,26.80009003,0.37407562
'0:25.000',0.59997024,-0.95997314,-0.03003479,26.80009003,0.37002008
'0:25.125',0.59997024,-0.95997314,-0.03003479,26.80009003,0.37002008
'0:25.250',0.58997009,-0.96996704,-0.03003479,26.80009003,0.37002008
'0:25.375',0.59997024,-0.95997314,-0.03003479,26.80009003,0.36905448
'0:25.500',0.59997024,-0.95997314,-0.03003479,26.80009003,0.37002008
'0:25.625',0.58997009,-0.96996704,-0.03003479,26.80009003,0.37002008
'0:25.750',0.59997024,-0.95997314,-0.03003479,26.80009003,0.37002008
'0:25.875',0.59997024,-0.96996704,-0.03003479,26.80009003,0.36905448
'0:26.000',0.59997024,-0.95997314,-0.03003479,26.80009003,0.36905448
'0:26.125',0.59997024,-0.95997314,-0.03003479,26.80009003,0.37002008
'0:26.250',0.59997024,-0.95997314,-0.03003479,26.80009003,0.36702670
'0:26.375',0.59997024,-0.96996704,-0.03003479,26.80009003,0.36905448
'0:26.500',0.59997024,-0.95997314,-0.03003479,26.80009003,0.37002008
'0:26.625',0.59997024,-0.95997314,-0.03003479,26.80009003,0.37002008
'0:26.750',0.59997024,-0.95997314,-0.03003479,26.80009003,0.37002008
'0:26.875',0.59997024,-0.95997314,-0.04000931,26.80009003,0.36702670
'0:27.000',0.59997024,-0.95997314,-0.03003479,26.80009003,0.36509549
'0:27.125',0.59997024,-0.95997314,-0.03003479,26.80009003,0.36509549
'0:27.250',0.59997024,-0.95997314,-0.03003479,26.80009003,0.36509549
'0:27.375',0.59997024,-0.95997314,-0.03003479,26.80009003,0.36509549
'0:27.500',0.61997055,-0.94997925,-0.04000931,26.80009003,0.36403333
'0:27.625',0.61997055,-0.94997925,-0.03003479,26.80009003,0.36509549
'0:27.750',0.60997040,-0.95997314,0.00000000,26.80009003,0.36509549
'0:27.875',0.64997101,-0.95997314,0.00000000,26.80009003,0.36509549
'0:28.000',0.62997070,-0.94997925,-0.12002792,26.80009003,0.36509549
'0:28.125',0.61997055,-0.93998535,-0.03003479,26.80009003,0.36103995
'0:28.250',0.71997208,-0.91999756,-0.04000931,26.80009003,0.35901218
'0:28.375',0.63997085,-0.92999145,-0.03003479,26.80009003,0.36200555
'0:28.500',0.64997101,-0.92999145,-0.03003479,26.80009003,0.35901218
'0:28.625',0.65997116,-0.92999145,-0.04000931,26.80009003,0.36200555
'0:28.750',0.66997131,-0.92999145,-0.04000931,26.80009003,0.35901218
'0:28.875',0.66997131,-0.92999145,-0.03003479,26.80009003,0.35901218
'0:29.000',0.66997131,-0.92999145,-0.04000931,26.80009003,0.35901218
'0:29.125',0.66997131,-0.92999145,-0.04000931,26.80009003,0.35901218
'0:29.250',0.66997131,-0.92999145,-0.04000931,26.80009003,0.35901218
'0:29.375',0.66997131,-0.92999145,-0.04000931,26.80009003,0.35901218
'0:29.500',0.66997131,-0.92999145,-0.04000931,26.80009003,0.35901218
'0:29.625',0.66997131,-0.91999756,-0.04000931,26.80009003,0.35901218
'0:29.750',0.66997131,-0.92999145,-0.03003479,26.80009003,0.35708097
'0:29.875',0.67997147,-0.92999145,-0.03003479,26.80009003,0.35302542
'0:30.000',0.66997131,-0.92999145,-0.04000931,26.80009003,0.35708097
'0:30.125',0.66997131,-0.92999145,-0.04000931,26.80009003,0.35302542
'0:30.250',0.66997131,-0.92999145,-0.04000931,27.00013428,0.35708097
'0:30.375',0.66997131,-0.91999756,-0.04000931,26.80009003,0.35302542
'0:30.500',0.67997147,-0.91999756,-0.04000931,27.00013428,0.35302542
'0:30.625',0.67997147,-0.91999756,-0.04000931,27.00013428,0.35302542
'0:30.750',0.66997131,-0.91999756,-0.04000931,27.00013428,0.35302542
'0:30.875',0.67997147,-0.91999756,-0.04000931,26.80009003,0.35302542
'0:31.000',0.66997131,-0.91999756,-0.04000931,27.00013428,0.35302542
'0:31.125',0.67997147,-0.91999756,-0.04000931,27.00013428,0.35302542
'0:31.250',0.67997147,-0.91999756,-0.04000931,27.00013428,0.35109421
'0:31.375',0.67997147,-0.91999756,-0.04000931,26.80009003,0.35109421
'0:31.500',0.67997147,-0.92999145,-0.04000931,27.00013428,0.35109421
'0:31.625',0.66997131,-0.91999756,-0.04000931,27.00013428,0.35109421
'0:31.750',0.66997131,-0.92999145,-0.04000931,27.00013428,0.35109421
'0:31.875',0.67997147,-0.91999756,-0.03003479,27.00013428,0.35003204
'0:32.000',0.66997131,-0.92999145,-0.04000931,27.00013428,0.35109421
'0:32.125',0.66997131,-0.92999145,-0.04000931,27.00013428,0.34703867
'0:32.250',0.66997131,-0.92999145,-0.03003479,27.00013428,0.34800427
'0:32.375',0.66997131,-0.92999145,-0.04000931,27.00013428,0.34800427
'0:32.500',0.66997131,-0.92999145,-0.04000931,27.00013428,0.34800427
'0:32.625',0.66997131,-0.91999756,-0.04000931,27.00013428,0.34800427
'0:32.750',0.67997147,-0.91999756,-0.04000931,27.00013428,0.34800427
'0:32.875',0.67997147,-0.91999756,-0.04000931,27.00013428,0.34800427
'0:33.000',0.67997147,-0.91999756,-0.04000931,27.00013428,0.34800427
'0:33.125',0.67997147,-0.91999756,-0.04000931,27.00013428,0.34800427
'0:33.250',0.67997147,-0.91999756,-0.04000931,27.00013428,0.34800427
'0:33.375',0.67997147,-0.91999756,-0.03003479,27.00013428,0.34800427
'0:33.500',0.67997147,-0.91999756,-0.04000931,27.00013428,0.34800427
'0:33.625',0.67997147,-0.91999756,-0.04000931,27.00013428,0.34800427
'0:33.750',0.66997131,-0.91999756,-0.04000931,27.00013428,0.34501090
'0:33.875',0.66997131,-0.92999145,-0.04000931,27.00013428,0.34201752
'0:34.000',0.67997147,-0.92999145,-0.04000931,27.00013428,0.34501090
'0:34.125',0.67997147,-0.92999145,-0.04000931,27.00013428,0.34201752
'0:34.250',0.66997131,-0.92999145,-0.04000931,27.00013428,0.34201752
'0:34.375',0.66997131,-0.92999145,-0.04000931,27.00013428,0.34201752
'0:34.500',0.66997131,-0.92999145,-0.03003479,27.00013428,0.34201752
'0:34.625',0.67997147,-0.92999145,-0.04000931,27.00013428,0.34201752
'0:34.750',0.66997131,-0.92999145,-0.04000931,27.00013428,0.34201752
'0:34.875',0.66997131,-0.91999756,-0.03003479,27.00013428,0.34201752
'0:35.000',0.66997131,-0.92999145,-0.03003479,27.00013428,0.34201752
'0:35.125',0.66997131,-0.92999145,-0.04000931,27.00013428,0.34201752
'0:35.250',0.66997131,-0.91999756,-0.04000931,27.00013428,0.34008631
'0:35.375',0.66997131,-0.91999756,-0.04000931,27.00013428,0.33805853
'0:35.500',0.67997147,-0.91999756,-0.04000931,27.00013428,0.34201752
'0:35.625',0.67997147,-0.92999145,-0.04000931,27.00013428,0.34008631
'0:35.750',0.67997147,-0.92999145,-0.04000931,27.00013428,0.34201752
'0:35.875',0.66997131,-0.91999756,-0.04000931,27.00013428,0.33709293
'0:36.000',0.67997147,-0.91999756,-0.04000931,27.00013428,0.34008631
'0:36.125',0.67997147,-0.92999145,-0.04000931,27.00013428,0.33709293
'0:36.250',0.67997147,-0.92999145,-0.04000931,27.00013428,0.33603076
'0:36.375',0.67997147,-0.91999756,-0.04000931,27.00013428,0.33709293
'0:36.500',0.67997147,-0.91999756,-0.04000931,27.00013428,0.33709293
'0:36.625',0.67997147,-0.92999145,-0.03003479,27.00013428,0.33603076
'0:36.750',0.66997131,-0.91999756,-0.04000931,27.00013428,0.33603076
'0:36.875',0.65997116,-0.92999145,-0.04000931,27.00013428,0.33709293
'0:37.000',0.66997131,-0.91999756,-0.04000931,27.00013428,0.33709293
'0:37.125',0.66997131,-0.92999145,-0.04000931,27.00013428,0.33709293
'0:37.250',0.66997131,-0.91999756,-0.04000931,27.00013428,0.33709293
'0:37.375',0.65997116,-0.92999145,-0.03003479,27.20004273,0.33400299
'0:37.500',0.66997131,-0.92999145,-0.04000931,27.20004273,0.33400299
'0:37.625',0.66997131,-0.92999145,-0.04000931,27.20004273,0.33400299
'0:37.750',0.67997147,-0.91999756,-0.04000931,27.20004273,0.33400299
'0:37.875',0.66997131,-0.92999145,-0.04000931,27.00013428,0.33400299
'0:38.000',0.66997131,-0.92999145,-0.04000931,27.00013428,0.33400299
'0:38.125',0.66997131,-0.92999145,-0.04000931,27.20004273,0.33004401
'0:38.250',0.66997131,-0.92999145,-0.04000931,27.20004273,0.33100961
'0:38.375',0.66997131,-0.92999145,-0.04000931,27.00013428,0.33100961
'0:38.500',0.66997131,-0.91999756,-0.03003479,27.20004273,0.33100961
'0:38.625',0.66997131,-0.92999145,-0.04000931,27.00013428,0.33100961
'0:38.750',0.67997147,-0.92999145,-0.04000931,27.00013428,0.33100961
'0:38.875',0.66997131,-0.92999145,-0.04000931,27.20004273,0.33100961
'0:39.000',0.66997131,-0.91999756,-0.03003479,27.20004273,0.33100961
'0:39.125',0.67997147,-0.91999756,-0.03003479,27.20004273,0.33100961
'0:39.250',0.67997147,-0.91999756,-0.03003479,27.20004273,0.33100961
'0:39.375',0.66997131,-0.91999756,-0.04000931,27.20004273,0.33100961
'0:39.500',0.66997131,-0.91999756,-0.04000931,27.20004273,0.33100961
'0:39.625',0.66997131,-0.91999756,-0.04000931,27.20004273,0.33100961
'0:39.750',0.66997131,-0.91999756,-0.04000931,27.20004273,0.33100961
'0:39.875',0.66997131,-0.92999145,-0.03003479,27.20004273,0.33100961
'0:40.000',0.66997131,-0.92999145,-0.04000931,27.20004273,0.33100961
'0:40.125',0.66997131,-0.92999145,-0.04000931,27.20004273,0.33100961
'0:40.250',0.67997147,-0.92999145,-0.04000931,27.20004273,0.32801624
'0:40.375',0.66997131,-0.92999145,-0.04000931,27.20004273,0.32608502
'0:40.500',0.66997131,-0.92999145,-0.03003479,27.20004273,0.32801624
'0:40.625',0.66997131,-0.92999145,-0.04000931,27.20004273,0.32608502
'0:40.750',0.66997131,-0.92999145,-0.04000931,27.20004273,0.32608502
'0:40.875',0.66997131,-0.92999145,-0.03003479,27.20004273,0.32801624
'0:41.000',0.66997131,-0.92999145,-0.04000931,27.20004273,0.32608502
'0:41.125',0.66997131,-0.92999145,-0.04000931,27.20004273,0.32608502
'0:41.250',0.67997147,-0.91999756,-0.04000931,27.20004273,0.32608502
'0:41.375',0.66997131,-0.91999756,-0.04000931,27.20004273,0.32608502
'0:41.500',0.67997147,-0.91999756,-0.04000931,27.20004273,0.32608502
'0:41.625',0.67997147,-0.91999756,-0.03003479,27.20004273,0.32608502
'0:41.750',0.67997147,-0.91999756,-0.04000931,27.20004273,0.32608502
'0:41.875',0.66997131,-0.91999756,-0.04000931,27.20004273,0.32309165
'0:42.000',0.66997131,-0.91999756,-0.04000931,27.20004273,0.32309165
'0:42.125',0.66997131,-0.91999756,-0.04000931,27.20004273,0.32309165
'0:42.250',0.67997147,-0.91999756,-0.03003479,27.20004273,0.32309165
'0:42.375',0.67997147,-0.92999145,-0.04000931,27.20004273,0.32000171
'0:42.500',0.66997131,-0.92999145,-0.04000931,27.20004273,0.32000171
'0:42.625',0.66997131,-0.92999145,-0.04000931,27.20004273,0.32000171
'0:42.750',0.66997131,-0.92999145,-0.04000931,27.20004273,0.32309165
'0:42.875',0.66997131,-0.92999145,-0.04000931,27.20004273,0.32000171
'0:43.000',0.66997131,-0.92999145,-0.03003479,27.20004273,0.32000171
'0:43.125',0.67997147,-0.92999145,-0.04000931,27.20004273,0.32000171
'0:43.250',0.66997131,-0.92999145,-0.04000931,27.20004273,0.32000171
'0:43.375',0.66997131,-0.92999145,-0.04000931,27.20004273,0.32000171
'0:43.500',0.67997147,-0.92999145,-0.03003479,27.20004273,0.32000171
'0:43.625',0.66997131,-0.92999145,-0.04000931,27.20004273,0.32000171
'0:43.750',0.66997131,-0.92999145,-0.04000931,27.20004273,0.32000171
'0:43.875',0.67997147,-0.92999145,-0.04000931,27.20004273,0.31807050
'0:44.000',0.67997147,-0.91999756,-0.04000931,27.20004273,0.31807050
'0:44.125',0.67997147,-0.92999145,-0.04000931,27.20004273,0.31507712
'0:44.250',0.67997147,-0.91999756,-0.04000931,27.20004273,0.31507712
'0:44.375',0.67997147,-0.91999756,-0.03003479,27.20004273,0.31807050
'0:44.500',0.67997147,-0.91999756,-0.04000931,27.40008698,0.31807050
'0:44.625',0.67997147,-0.91999756,-0.04000931,27.40008698,0.31401495
'0:44.750',0.66997131,-0.92999145,-0.03003479,27.40008698,0.31507712
'0:44.875',0.66997131,-0.91999756,-0.04000931,27.20004273,0.31507712
'0:45.000',0.66997131,-0.92999145,-0.04000931,27.40008698,0.31507712
'0:45.125',0.66997131,-0.92999145,-0.04000931,27.20004273,0.31507712
'0:45.250',0.66997131,-0.92999145,-0.03003479,27.40008698,0.31507712
'0:45.375',0.66997131,-0.91999756,-0.04000931,27.40008698,0.31507712
'0:45.500',0.66997131,-0.92999145,-0.04000931,27.40008698,0.31507712
'0:45.625',0.66997131,-0.92999145,-0.04000931,27.20004273,0.31507712
'0:45.750',0.66997131,-0.92999145,-0.04000931,27.40008698,0.31507712
'0:45.875',0.66997131,-0.92999145,-0.04000931,27.40008698,0.31507712
'0:46.000',0.67997147,-0.92999145,-0.03003479,27.40008698,0.31401495
'0:46.125',0.66997131,-0.92999145,-0.04000931,27.40008698,0.31507712
'0:46.250',0.66997131,-0.92999145,-0.03003479,27.40008698,0.31208374
'0:46.375',0.66997131,-0.92999145,-0.04000931,27.40008698,0.31507712
'0:46.500',0.66997131,-0.92999145,-0.03003479,27.40008698,0.31208374
'0:46.625',0.67997147,-0.92999145,-0.03003479,27.40008698,0.31102158
'0:46.750',0.66997131,-0.92999145,-0.03003479,27.40008698,0.31208374
'0:46.875',0.66997131,-0.92999145,-0.03003479,27.40008698,0.31208374
'0:47.000',0.66997131,-0.91999756,-0.04000931,27.40008698,0.31208374
'0:47.125',0.67997147,-0.92999145,-0.04000931,27.40008698,0.31005597
'0:47.250',0.67997147,-0.91999756,-0.04000931,27.40008698,0.31005597
'0:47.375',0.67997147,-0.91999756,-0.04000931,27.40008698,0.31005597
'0:47.500',0.66997131,-0.92999145,-0.04000931,27.40008698,0.31005597
'0:47.625',0.67997147,-0.91999756,-0.04000931,27.40008698,0.31005597
'0:47.750',0.67997147,-0.91999756,-0.04000931,27.40008698,0.30909037
'0:47.875',0.66997131,-0.91999756,-0.04000931,27.40008698,0.31005597
'0:48.000',0.66997131,-0.92999145,-0.04000931,27.40008698,0.31005597
'0:48.125',0.67997147,-0.91999756,-0.03003479,27.40008698,0.30909037
'0:48.250',0.66997131,-0.91999756,-0.04000931,27.40008698,0.31005597
'0:48.375',0.66997131,-0.91999756,-0.04000931,27.40008698,0.30909037
'0:48.500',0.66997131,-0.91999756,-0.04000931,27.40008698,0.30706259
'0:48.625',0.66997131,-0.92999145,-0.04000931,27.40008698,0.30706259
'0:48.750',0.66997131,-0.92999145,-0.03003479,27.40008698,0.30406922
'0:48.875',0.66997131,-0.92999145,-0.04000931,27.40008698,0.30600043
'0:49.000',0.66997131,-0.92999145,-0.04000931,27.40008698,0.30406922
'0:49.125',0.67997147,-0.92999145,-0.04000931,27.40008698,0.30406922
'0:49.250',0.66997131,-0.92999145,-0.04000931,27.40008698,0.30406922
'0:49.375',0.66997131,-0.92999145,-0.04000931,27.40008698,0.30406922
'0:49.500',0.66997131,-0.92999145,-0.03003479,27.40008698,0.30406922
'0:49.625',0.67997147,-0.91999756,-0.03003479,27.40008698,0.30406922
'0:49.750',0.66997131,-0.91999756,-0.04000931,27.40008698,0.30300705
'0:49.875',0.67997147,-0.91999756,-0.04000931,27.60013123,0.30300705
'0:50.000',0.66997131,-0.91999756,-0.04000931,27.40008698,0.30204144
'0:50.125',0.66997131,-0.91999756,-0.04000931,27.40008698,0.30107584
'0:50.250',0.67997147,-0.91999756,-0.03003479,27.40008698,0.30204144
'0:50.375',0.66997131,-0.91999756,-0.03003479,27.40008698,0.30204144
'0:50.500',0.67997147,-0.91999756,-0.04000931,27.40008698,0.30204144
'0:50.625',0.67997147,-0.91999756,-0.04000931,27.40008698,0.30204144
'0:50.750',0.66997131,-0.91999756,-0.04000931,27.40008698,0.29904807
'0:50.875',0.66997131,-0.91999756,-0.03003479,27.40008698,0.30204144
'0:51.000',0.67997147,-0.92999145,-0.04000931,27.40008698,0.29904807
'0:51.125',0.67997147,-0.91999756,-0.04000931,27.40008698,0.29904807
'0:51.250',0.66997131,-0.91999756,-0.04000931,27.40008698,0.29904807
'0:51.375',0.66997131,-0.91999756,-0.04000931,27.40008698,0.29904807
'0:51.500',0.67997147,-0.91999756,-0.03003479,27.40008698,0.29904807
'0:51.625',0.66997131,-0.91999756,-0.03003479,27.40008698,0.29904807
'0:51.750',0.66997131,-0.91999756,-0.03003479,27.40008698,0.29904807
'0:51.875',0.66997131,-0.92999145,-0.04000931,27.40008698,0.29904807
'0:52.000',0.66997131,-0.92999145,-0.03003479,27.40008698,0.29605469
'0:52.125',0.66997131,-0.92999145,-0.04000931,27.40008698,0.29904807
'0:52.250',0.67997147,-0.91999756,-0.04000931,27.60013123,0.29605469
'0:52.375',0.66997131,-0.91999756,-0.03003479,27.40008698,0.29605469
'0:52.500',0.67997147,-0.92999145,-0.04000931,27.40008698,0.29605469
'0:52.625',0.67997147,-0.91999756,-0.04000931,27.60013123,0.29605469
'0:52.750',0.67997147,-0.92999145,-0.04000931,27.40008698,0.29605469
'0:52.875',0.67997147,-0.92999145,-0.04000931,27.60013123,0.29605469
'0:53.000',0.67997147,-0.91999756,-0.04000931,27.60013123,0.29605469
'0:53.125',0.67997147,-0.91999756,-0.04000931,27.60013123,0.29605469
'0:53.250',0.67997147,-0.91999756,-0.04000931,27.60013123,0.29605469
'0:53.375',0.67997147,-0.91999756,-0.03003479,27.40008698,0.29605469
'0:53.500',0.66997131,-0.91999756,-0.04000931,27.60013123,0.29605469
'0:53.625',0.67997147,-0.91999756,-0.04000931,27.60013123,0.29306131
'0:53.750',0.67997147,-0.91999756,-0.03003479,27.40008698,0.29306131
'0:53.875',0.66997131,-0.91999756,-0.03003479,27.60013123,0.29605469
'0:54.000',0.66997131,-0.91999756,-0.04000931,27.60013123,0.29605469
'0:54.125',0.67997147,-0.91999756,-0.03003479,27.60013123,0.29306131
'0:54.250',0.66997131,-0.91999756,-0.03003479,27.60013123,0.29306131
'0:54.375',0.66997131,-0.91999756,-0.04000931,27.60013123,0.29306131
'0:54.500',0.66997131,-0.91999756,-0.03003479,27.60013123,0.29306131
'0:54.625',0.66997131,-0.92999145,-0.04000931,27.60013123,0.29306131
'0:54.750',0.66997131,-0.92999145,-0.03003479,27.60013123,0.29306131
'0:54.875',0.66997131,-0.91999756,-0.04000931,27.60013123,0.29306131
'0:55.000',0.66997131,-0.91999756,-0.04000931,27.60013123,0.29306131
'0:55.125',0.66997131,-0.91999756,-0.03003479,27.60013123,0.29306131
'0:55.250',0.66997131,-0.91999756,-0.03003479,27.60013123,0.29306131
'0:55.375',0.66997131,-0.91999756,-0.03003479,27.60013123,0.29306131
'0:55.500',0.67997147,-0.91999756,-0.04000931,27.60013123,0.29306131
'0:55.625',0.66997131,-0.91999756,-0.03003479,27.60013123,0.29306131
'0:55.750',0.67997147,-0.91999756,-0.04000931,27.60013123,0.29306131
'0:55.875',0.66997131,-0.91999756,-0.04000931,27.60013123,0.29103354
'0:56.000',0.67997147,-0.92999145,-0.03003479,27.60013123,0.28804016
'0:56.125',0.67997147,-0.91999756,-0.04000931,27.60013123,0.29306131
'0:56.250',0.67997147,-0.91999756,-0.03003479,27.60013123,0.28804016
'0:56.375',0.66997131,-0.91999756,-0.04000931,27.60013123,0.28804016
'0:56.500',0.67997147,-0.91999756,-0.04000931,27.60013123,0.28804016
'0:56.625',0.67997147,-0.91999756,-0.04000931,27.60013123,0.28804016
'0:56.750',0.66997131,-0.92999145,-0.04000931,27.60013123,0.28804016
'0:56.875',0.67997147,-0.91999756,-0.03003479,27.60013123,0.28804016
'0:57.000',0.67997147,-0.92999145,-0.04000931,27.60013123,0.28804016
'0:57.125',0.66997131,-0.91999756,-0.03003479,27.60013123,0.28804016
'0:57.250',0.66997131,-0.92999145,-0.03003479,27.60013123,0.28804016
'0:57.375',0.67997147,-0.91999756,-0.03003479,27.60013123,0.28601239
'0:57.500',0.66997131,-0.91999756,-0.04000931,27.60013123,0.28601239
'0:57.625',0.67997147,-0.91999756,-0.04000931,27.60013123,0.28601239
'0:57.750',0.66997131,-0.92999145,-0.04000931,27.60013123,0.28301901
'0:57.875',0.66997131,-0.92999145,-0.04000931,27.60013123,0.28601239
'0:58.000',0.66997131,-0.91999756,-0.04000931,27.60013123,0.28601239
'0:58.125',0.66997131,-0.92999145,-0.04000931,27.60013123,0.28301901
'0:58.250',0.67997147,-0.91999756,-0.03003479,27.60013123,0.28504678
'0:58.375',0.66997131,-0.91999756,-0.03003479,27.60013123,0.28205341
'0:58.500',0.66997131,-0.91999756,-0.04000931,27.60013123,0.28301901
'0:58.625',0.66997131,-0.91999756,-0.04000931,27.60013123,0.28301901
'0:58.750',0.66997131,-0.91999756,-0.04000931,27.60013123,0.28301901
'0:58.875',0.67997147,-0.91999756,-0.03003479,27.60013123,0.28301901
'0:59.000',0.66997131,-0.91999756,-0.04000931,27.60013123,0.28301901
'0:59.125',0.67997147,-0.91999756,-0.04000931,27.60013123,0.28301901
'0:59.250',0.67997147,-0.92999145,-0.03003479,27.60013123,0.28301901
'0:59.375',0.67997147,-0.91999756,-0.04000931,27.60013123,0.28205341
'0:59.500',0.66997131,-0.91999756,-0.04000931,27.90012970,0.28108780
'0:59.625',0.67997147,-0.91999756,-0.04000931,27.60013123,0.28108780
'0:59.750',0.67997147,-0.91999756,-0.04000931,27.60013123,0.28002564
'0:59.875',0.66997131,-0.91999756,-0.04000931,27.60013123,0.28108780
'1:00.000',0.66997131,-0.91999756,-0.03003479,27.60013123,0.28108780
'1:00.125',0.67997147,-0.91999756,-0.04000931,27.60013123,0.28108780
'1:00.250',0.67997147,-0.91999756,-0.03003479,27.60013123,0.28108780
'1:00.375',0.66997131,-0.91999756,-0.04000931,27.60013123,0.28108780
'1:00.500',0.66997131,-0.91999756,-0.03003479,27.60013123,0.28108780
'1:00.625',0.66997131,-0.91999756,-0.04000931,27.60013123,0.28108780
'1:00.750',0.66997131,-0.91999756,-0.04000931,27.90012970,0.27809442
'1:00.875',0.66997131,-0.91999756,-0.04000931,27.60013123,0.28108780
'1:01.000',0.67997147,-0.91999756,-0.03003479,27.60013123,0.27809442
'1:01.125',0.67997147,-0.91999756,-0.04000931,27.60013123,0.27809442
'1:01.250',0.67997147,-0.92999145,-0.04000931,27.90012970,0.27809442
'1:01.375',0.66997131,-0.91999756,-0.04000931,27.60013123,0.27809442
'1:01.500',0.66997131,-0.91999756,-0.04000931,27.60013123,0.27809442
'1:01.625',0.66997131,-0.91999756,-0.03003479,27.90012970,0.27809442
'1:01.750',0.66997131,-0.91999756,-0.03003479,27.60013123,0.27809442
'1:01.875',0.67997147,-0.91999756,-0.04000931,27.90012970,0.27809442
'1:02.000',0.67997147,-0.91999756,-0.04000931,27.60013123,0.27703226
'1:02.125',0.67997147,-0.91999756,-0.04000931,27.60013123,0.27809442
'1:02.250',0.67997147,-0.91999756,-0.04000931,27.60013123,0.27703226
'1:02.375',0.68997162,-0.92999145,-0.03003479,27.60013123,0.27809442
'1:02.500',0.67997147,-0.91999756,-0.04000931,27.90012970,0.27703226
'1:02.625',0.67997147,-0.91999756,-0.04000931,27.90012970,0.27809442
'1:02.750',0.67997147,-0.91999756,-0.04000931,27.90012970,0.27809442
'1:02.875',0.67997147,-0.91999756,-0.04000931,27.90012970,0.27809442
'1:03.000',0.67997147,-0.91999756,-0.04000931,27.60013123,0.27809442
'1:03.125',0.66997131,-0.91999756,-0.04000931,27.90012970,0.27809442
'1:03.250',0.67997147,-0.91999756,-0.04000931,27.90012970,0.27403888
'1:03.375',0.66997131,-0.91999756,-0.04000931,27.90012970,0.27201111
'1:03.500',0.67997147,-0.92999145,-0.03003479,27.90012970,0.27201111
'1:03.625',0.67997147,-0.91999756,-0.03003479,27.90012970,0.27201111
'1:03.750',0.66997131,-0.91999756,-0.04000931,27.90012970,0.27201111
'1:03.875',0.67997147,-0.91999756,-0.03003479,27.90012970,0.27201111
'1:04.000',0.67997147,-0.91999756,-0.03003479,27.90012970,0.27201111
'1:04.125',0.66997131,-0.92999145,-0.03003479,27.90012970,0.27201111
'1:04.250',0.66997131,-0.91999756,-0.03003479,27.90012970,0.27201111
'1:04.375',0.67997147,-0.91999756,-0.04000931,27.90012970,0.27201111
'1:04.500',0.66997131,-0.91999756,-0.04000931,27.90012970,0.27201111
'1:04.625',0.66997131,-0.91999756,-0.04000931,27.90012970,0.27201111
'1:04.750',0.66997131,-0.92999145,-0.04000931,27.90012970,0.27201111
'1:04.875',0.67997147,-0.91999756,-0.03003479,27.90012970,0.27201111
'1:05.000',0.67997147,-0.91999756,-0.04000931,27.90012970,0.27201111
'1:05.125',0.68997162,-0.91999756,-0.04000931,27.90012970,0.27201111
'1:05.250',0.67997147,-0.91999756,-0.03003479,27.90012970,0.26708652
'1:05.375',0.67997147,-0.91999756,-0.04000931,27.90012970,0.27007990
'1:05.500',0.67997147,-0.91999756,-0.04000931,27.90012970,0.27007990
'1:05.625',0.67997147,-0.91999756,-0.04000931,27.90012970,0.26708652
'1:05.750',0.67997147,-0.91999756,-0.04000931,27.90012970,0.26708652
'1:05.875',0.67997147,-0.91999756,-0.04000931,27.90012970,0.26708652
'1:06.000',0.67997147,-0.91999756,-0.04000931,27.90012970,0.26708652
'1:06.125',0.67997147,-0.91999756,-0.04000931,27.90012970,0.26708652
'1:06.250',0.67997147,-0.91999756,-0.04000931,27.90012970,0.26708652
'1:06.375',0.67997147,-0.91999756,-0.04000931,27.90012970,0.26708652
'1:06.500',0.66997131,-0.91999756,-0.04000931,27.90012970,0.26708652
'1:06.625',0.66997131,-0.91999756,-0.03003479,27.90012970,0.26708652
'1:06.750',0.67997147,-0.91999756,-0.04000931,27.90012970,0.26708652
'1:06.875',0.67997147,-0.91999756,-0.03003479,27.90012970,0.26505875
'1:07.000',0.66997131,-0.91999756,-0.03003479,27.90012970,0.26708652
'1:07.125',0.66997131,-0.91999756,-0.04000931,27.90012970,0.26708652
'1:07.250',0.67997147,-0.92999145,-0.04000931,27.90012970,0.26505875
'1:07.375',0.67997147,-0.91999756,-0.04000931,27.90012970,0.26505875
'1:07.500',0.67997147,-0.91999756,-0.04000931,27.90012970,0.26708652
'1:07.625',0.67997147,-0.91999756,-0.04000931,27.90012970,0.26505875
'1:07.750',0.67997147,-0.91999756,-0.04000931,27.90012970,0.26505875
'1:07.875',0.67997147,-0.91999756,-0.03003479,27.90012970,0.26505875
'1:08.000',0.67997147,-0.91999756,-0.04000931,27.90012970,0.26505875
'1:08.125',0.67997147,-0.91999756,-0.04000931,27.90012970,0.26409314
'1:08.250',0.66997131,-0.91999756,-0.04000931,27.90012970,0.26206537
'1:08.375',0.67997147,-0.91999756,-0.04000931,27.90012970,0.26206537
'1:08.500',0.67997147,-0.91999756,-0.04000931,27.90012970,0.26206537
'1:08.625',0.66997131,-0.91999756,-0.04000931,27.90012970,0.26206537
'1:08.750',0.66997131,-0.91999756,-0.04000931,27.90012970,0.26206537
'1:08.875',0.66997131,-0.91999756,-0.04000931,27.90012970,0.26206537
'1:09.000',0.66997131,-0.91999756,-0.04000931,27.90012970,0.26206537
'1:09.125',0.66997131,-0.92999145,-0.04000931,27.90012970,0.26206537
'1:09.250',0.66997131,-0.92999145,-0.04000931,27.90012970,0.26206537
'1:09.375',0.66997131,-0.91999756,-0.04000931,27.90012970,0.26206537
'1:09.500',0.67997147,-0.91999756,-0.04000931,27.90012970,0.26206537
'1:09.625',0.66997131,-0.92999145,-0.04000931,27.90012970,0.26206537
'1:09.750',0.67997147,-0.92999145,-0.04000931,27.90012970,0.26206537
'1:09.875',0.66997131,-0.91999756,-0.03003479,27.90012970,0.26206537
'1:10.000',0.66997131,-0.92999145,-0.03003479,27.90012970,0.26206537
'1:10.125',0.66997131,-0.91999756,-0.04000931,27.90012970,0.26206537
'1:10.250',0.66997131,-0.91999756,-0.04000931,27.90012970,0.26100320
'1:10.375',0.67997147,-0.91999756,-0.04000931,28.10003815,0.26206537
'1:10.500',0.67997147,-0.91999756,-0.04000931,27.90012970,0.25907199
'1:10.625',0.66997131,-0.91999756,-0.04000931,27.90012970,0.26100320
'1:10.750',0.66997131,-0.91999756,-0.03003479,28.10003815,0.26206537
'1:10.875',0.67997147,-0.91999756,-0.04000931,28.10003815,0.25907199
'1:11.000',0.67997147,-0.91999756,-0.04000931,27.90012970,0.25907199
'1:11.125',0.67997147,-0.91999756,-0.03003479,27.90012970,0.25704422
'1:11.250',0.67997147,-0.91999756,-0.04000931,27.90012970,0.25907199
'1:11.375',0.67997147,-0.91999756,-0.04000931,27.90012970,0.25907199
'1:11.500',0.67997147,-0.91999756,-0.04000931,27.90012970,0.25704422
'1:11.625',0.67997147,-0.91999756,-0.04000931,28.10003815,0.25704422
'1:11.750',0.67997147,-0.91999756,-0.04000931,27.90012970,0.25704422
'1:11.875',0.67997147,-0.91999756,-0.04000931,28.10003815,0.25704422
'1:12.000',0.66997131,-0.92999145,-0.04000931,28.10003815,0.25704422
'1:12.125',0.66997131,-0.91999756,-0.03003479,28.10003815,0.25704422
'1:12.250',0.66997131,-0.92999145,-0.03003479,28.10003815,0.25704422
'1:12.375',0.67997147,-0.91999756,-0.04000931,28.10003815,0.25704422
'1:12.500',0.66997131,-0.92999145,-0.04000931,28.10003815,0.25704422
'1:12.625',0.66997131,-0.91999756,-0.04000931,28.10003815,0.25704422
'1:12.750',0.66997131,-0.91999756,-0.03003479,28.10003815,0.25704422
'1:12.875',0.66997131,-0.91999756,-0.04000931,28.10003815,0.25704422
'1:13.000',0.66997131,-0.91999756,-0.03003479,28.10003815,0.25704422
'1:13.125',0.66997131,-0.91999756,-0.04000931,28.10003815,0.25607862
'1:13.250',0.67997147,-0.91999756,-0.04000931,28.10003815,0.25704422
'1:13.375',0.67997147,-0.91999756,-0.04000931,27.90012970,0.25704422
'1:13.500',0.66997131,-0.91999756,-0.04000931,28.10003815,0.25501645
'1:13.625',0.67997147,-0.91999756,-0.03003479,28.10003815,0.25202307
'1:13.750',0.66997131,-0.91999756,-0.04000931,28.10003815,0.25405084
'1:13.875',0.67997147,-0.91999756,-0.04000931,28.10003815,0.25202307
'1:14.000',0.67997147,-0.91999756,-0.03003479,28.10003815,0.25202307
'1:14.125',0.67997147,-0.92999145,-0.03003479,28.10003815,0.25202307
'1:14.250',0.67997147,-0.92999145,-0.04000931,28.10003815,0.25202307
'1:14.375',0.66997131,-0.92999145,-0.04000931,28.30008240,0.25202307
'1:14.500',0.66997131,-0.91999756,-0.04000931,28.30008240,0.25202307
'1:14.625',0.65997116,-0.91999756,-0.04000931,28.30008240,0.25202307
'1:14.750',0.66997131,-0.91999756,-0.04000931,28.30008240,0.25202307
'1:14.875',0.67997147,-0.91999756,-0.03003479,28.10003815,0.25105747
'1:15.000',0.66997131,-0.91999756,-0.04000931,28.10003815,0.25202307
'1:15.125',0.66997131,-0.92999145,-0.03003479,28.10003815,0.25202307
'1:15.250',0.66997131,-0.92999145,-0.03003479,28.10003815,0.25202307
'1:15.375',0.66997131,-0.91999756,-0.04000931,28.10003815,0.25202307
'1:15.500',0.66997131,-0.92999145,-0.04000931,28.10003815,0.25202307
'1:15.625',0.67997147,-0.91999756,-0.04000931,28.10003815,0.25009186
'1:15.750',0.67997147,-0.91999756,-0.04000931,28.10003815,0.25009186
'1:15.875',0.66997131,-0.91999756,-0.03003479,28.10003815,0.25009186
'1:16.000',0.66997131,-0.91999756,-0.04000931,28.10003815,0.25009186
'1:16.125',0.66997131,-0.91999756,-0.03003479,28.10003815,0.24700192
'1:16.250',0.67997147,-0.91999756,-0.03003479,28.10003815,0.25009186
'1:16.375',0.66997131,-0.91999756,-0.04000931,28.10003815,0.24700192
'1:16.500',0.67997147,-0.91999756,-0.04000931,28.10003815,0.24700192
'1:16.625',0.67997147,-0.91999756,-0.04000931,28.10003815,0.24700192
'1:16.750',0.67997147,-0.91999756,-0.04000931,28.10003815,0.24700192
'1:16.875',0.66997131,-0.91999756,-0.04000931,28.10003815,0.24700192
'1:17.000',0.66997131,-0.91999756,-0.04000931,28.10003815,0.24700192
'1:17.125',0.67997147,-0.91999756,-0.03003479,28.10003815,0.24603632
'1:17.250',0.66997131,-0.91999756,-0.04000931,28.10003815,0.24700192
'1:17.375',0.67997147,-0.91999756,-0.04000931,28.10003815,0.24700192
'1:17.500',0.67997147,-0.91999756,-0.04000931,28.10003815,0.24400855
'1:17.625',0.67997147,-0.91999756,-0.04000931,28.10003815,0.24700192
'1:17.750',0.66997131,-0.91999756,-0.04000931,28.10003815,0.24400855
'1:17.875',0.66997131,-0.91999756,-0.04000931,28.10003815,0.24700192
'1:18.000',0.66997131,-0.91999756,-0.04000931,28.10003815,0.24400855
'1:18.125',0.66997131,-0.92999145,-0.04000931,28.10003815,0.24400855
'1:18.250',0.66997131,-0.91999756,-0.04000931,28.10003815,0.24400855
'1:18.375',0.66997131,-0.91999756,-0.04000931,28.10003815,0.24400855
'1:18.500',0.67997147,-0.92999145,-0.03003479,28.10003815,0.24400855
'1:18.625',0.67997147,-0.92999145,-0.04000931,28.10003815,0.24400855
'1:18.750',0.67997147,-0.91999756,-0.04000931,28.10003815,0.24207733
'1:18.875',0.67997147,-0.92999145,-0.04000931,28.10003815,0.24400855
'1:19.000',0.67997147,-0.91999756,-0.04000931,28.10003815,0.24207733
'1:19.125',0.66997131,-0.91999756,-0.03003479,28.10003815,0.24207733
'1:19.250',0.67997147,-0.91999756,-0.03003479,28.30008240,0.24207733
'1:19.375',0.67997147,-0.91999756,-0.04000931,28.10003815,0.24207733
'1:19.500',0.67997147,-0.91999756,-0.04000931,28.10003815,0.24207733
'1:19.625',0.67997147,-0.91999756,-0.04000931,28.10003815,0.24207733
'1:19.750',0.67997147,-0.91999756,-0.04000931,28.30008240,0.24207733
'1:19.875',0.67997147,-0.92999145,-0.04000931,28.30008240,0.24207733
'1:20.000',0.66997131,-0.91999756,-0.04000931,28.10003815,0.24207733
'1:20.125',0.66997131,-0.91999756,-0.03003479,28.10003815,0.24207733
'1:20.250',0.66997131,-0.91999756,-0.04000931,28.30008240,0.24207733
'1:20.375',0.67997147,-0.92999145,-0.04000931,28.10003815,0.24207733
'1:20.500',0.66997131,-0.92999145,-0.04000931,28.10003815,0.24101517
'1:20.625',0.66997131,-0.92999145,-0.03003479,28.30008240,0.24207733
'1:20.750',0.67997147,-0.92999145,-0.04000931,28.10003815,0.24207733
'1:20.875',0.66997131,-0.91999756,-0.03003479,28.30008240,0.24207733
'1:21.000',0.66997131,-0.91999756,-0.03003479,28.10003815,0.24207733
'1:21.125',0.66997131,-0.92999145,-0.04000931,28.30008240,0.24207733
'1:21.250',0.66997131,-0.91999756,-0.04000931,28.10003815,0.24207733
'1:21.375',0.66997131,-0.92999145,-0.04000931,28.30008240,0.24207733
'1:21.500',0.66997131,-0.91999756,-0.04000931,28.30008240,0.24207733
'1:21.625',0.66997131,-0.92999145,-0.04000931,28.10003815,0.24101517
'1:21.750',0.66997131,-0.92999145,-0.04000931,28.30008240,0.24207733
'1:21.875',0.66997131,-0.91999756,-0.04000931,28.30008240,0.24207733
'1:22.000',0.67997147,-0.91999756,-0.04000931,28.30008240,0.24207733
'1:22.125',0.66997131,-0.91999756,-0.04000931,28.30008240,0.23908396
'1:22.250',0.67997147,-0.91999756,-0.04000931,28.10003815,0.23908396
'1:22.375',0.67997147,-0.91999756,-0.04000931,28.30008240,0.23908396
'1:22.500',0.66997131,-0.91999756,-0.04000931,28.30008240,0.23908396
'1:22.625',0.67997147,-0.91999756,-0.03003479,28.30008240,0.23908396
'1:22.750',0.67997147,-0.91999756,-0.03003479,28.30008240,0.23908396
'1:22.875',0.67997147,-0.92999145,-0.04000931,28.30008240,0.23705618
'1:23.000',0.66997131,-0.91999756,-0.03003479,28.30008240,0.23705618
'1:23.125',0.66997131,-0.92999145,-0.03003479,28.30008240,0.23705618
'1:23.250',0.66997131,-0.92999145,-0.04000931,28.30008240,0.23908396
'1:23.375',0.66997131,-0.91999756,-0.04000931,28.30008240,0.23705618
'1:23.500',0.66997131,-0.91999756,-0.04000931,28.30008240,0.23705618
'1:23.625',0.66997131,-0.91999756,-0.03003479,28.30008240,0.23705618
'1:23.750',0.66997131,-0.92999145,-0.03003479,28.30008240,0.23705618
'1:23.875',0.66997131,-0.91999756,-0.03003479,28.30008240,0.23705618
'1:24.000',0.66997131,-0.92999145,-0.04000931,28.30008240,0.23705618
'1:24.125',0.66997131,-0.92999145,-0.04000931,28.30008240,0.23705618
'1:24.250',0.66997131,-0.92999145,-0.04000931,28.30008240,0.23705618
'1:24.375',0.66997131,-0.91999756,-0.04000931,28.30008240,0.23406281
'1:24.500',0.66997131,-0.91999756,-0.03003479,28.30008240,0.23705618
'1:24.625',0.66997131,-0.91999756,-0.03003479,28.30008240,0.23609058
'1:24.750',0.66997131,-0.92999145,-0.03003479,28.30008240,0.23705618
'1:24.875',0.66997131,-0.92999145,-0.04000931,28.30008240,0.23705618
'1:25.000',0.66997131,-0.91999756,-0.04000931,28.30008240,0.23406281
'1:25.125',0.66997131,-0.91999756,-0.04000931,28.30008240,0.23705618
'1:25.250',0.67997147,-0.91999756,-0.04000931,28.30008240,0.23406281
'1:25.375',0.66997131,-0.91999756,-0.04000931,28.30008240,0.23406281
'1:25.500',0.66997131,-0.91999756,-0.03003479,28.30008240,0.23406281
'1:25.625',0.66997131,-0.91999756,-0.04000931,28.30008240,0.23106943
'1:25.750',0.66997131,-0.91999756,-0.04000931,28.30008240,0.23406281
'1:25.875',0.66997131,-0.92999145,-0.04000931,28.30008240,0.23406281
'1:26.000',0.66997131,-0.92999145,-0.04000931,28.30008240,0.23106943
'1:26.125',0.66997131,-0.91999756,-0.04000931,28.30008240,0.23106943
'1:26.250',0.67997147,-0.92999145,-0.03003479,28.30008240,0.23106943
'1:26.375',0.66997131,-0.92999145,-0.03003479,28.30008240,0.23106943
'1:26.500',0.66997131,-0.92999145,-0.04000931,28.30008240,0.23106943
'1:26.625',0.66997131,-0.91999756,-0.04000931,28.30008240,0.23106943
'1:26.750',0.66997131,-0.92999145,-0.03003479,28.30008240,0.23106943
'1:26.875',0.66997131,-0.91999756,-0.04000931,28.30008240,0.23106943
'1:27.000',0.66997131,-0.92999145,-0.03003479,28.30008240,0.22904166
'1:27.125',0.66997131,-0.91999756,-0.04000931,28.30008240,0.22904166
'1:27.250',0.66997131,-0.91999756,-0.04000931,28.30008240,0.23106943
'1:27.375',0.66997131,-0.92999145,-0.04000931,28.30008240,0.22904166
'1:27.500',0.67997147,-0.91999756,-0.04000931,28.30008240,0.22904166
'1:27.625',0.66997131,-0.91999756,-0.04000931,28.30008240,0.22904166
'1:27.750',0.66997131,-0.92999145,-0.04000931,28.30008240,0.22904166
'1:27.875',0.66997131,-0.91999756,-0.04000931,28.30008240,0.22904166
'1:28.000',0.66997131,-0.91999756,-0.04000931,28.30008240,0.22904166
'1:28.125',0.66997131,-0.92999145,-0.03003479,28.30008240,0.22904166
'1:28.250',0.66997131,-0.91999756,-0.04000931,28.30008240,0.22904166
'1:28.375',0.66997131,-0.92999145,-0.03003479,28.30008240,0.22904166
'1:28.500',0.66997131,-0.91999756,-0.04000931,28.30008240,0.22904166
'1:28.625',0.66997131,-0.92999145,-0.04000931,28.50012665,0.22904166
'1:28.750',0.66997131,-0.91999756,-0.03003479,28.30008240,0.22904166
'1:28.875',0.66997131,-0.91999756,-0.04000931,28.30008240,0.22604828
'1:29.000',0.66997131,-0.91999756,-0.03003479,28.30008240,0.22904166
'1:29.125',0.66997131,-0.92999145,-0.03003479,28.30008240,0.22904166
'1:29.250',0.66997131,-0.92999145,-0.04000931,28.50012665,0.22604828
'1:29.375',0.65997116,-0.91999756,-0.03003479,28.30008240,0.22904166
'1:29.500',0.66997131,-0.91999756,-0.03003479,28.30008240,0.22604828
'1:29.625',0.66997131,-0.92999145,-0.04000931,28.50012665,0.22904166
'1:29.750',0.66997131,-0.92999145,-0.04000931,28.30008240,0.22904166
'1:29.875',0.66997131,-0.92999145,-0.04000931,28.30008240,0.22604828
'1:30.000',0.66997131,-0.92999145,-0.03003479,28.30008240,0.22904166
'1:30.125',0.66997131,-0.91999756,-0.04000931,28.30008240,0.22604828
'1:30.250',0.66997131,-0.92999145,-0.04000931,28.50012665,0.22604828
'1:30.375',0.66997131,-0.91999756,-0.04000931,28.30008240,0.22604828
'1:30.500',0.66997131,-0.91999756,-0.04000931,28.30008240,0.22604828
'1:30.625',0.67997147,-0.91999756,-0.03003479,28.30008240,0.22604828
'1:30.750',0.67997147,-0.91999756,-0.04000931,28.30008240,0.22604828
'1:30.875',0.66997131,-0.91999756,-0.04000931,28.30008240,0.22604828
'1:31.000',0.66997131,-0.91999756,-0.04000931,28.50012665,0.22604828
'1:31.125',0.66997131,-0.91999756,-0.03003479,28.50012665,0.22604828
'1:31.250',0.66997131,-0.91999756,-0.04000931,28.50012665,0.22604828
'1:31.375',0.66997131,-0.91999756,-0.04000931,28.50012665,0.22604828
'1:31.500',0.66997131,-0.91999756,-0.04000931,28.50012665,0.22604828
'1:31.625',0.67997147,-0.91999756,-0.04000931,28.30008240,0.22604828
'1:31.750',0.66997131,-0.91999756,-0.03003479,28.50012665,0.22604828
'1:31.875',0.66997131,-0.92999145,-0.03003479,28.50012665,0.22604828
'1:32.000',0.66997131,-0.92999145,-0.04000931,28.50012665,0.22604828
'1:32.125',0.66997131,-0.91999756,-0.03003479,28.50012665,0.22604828
'1:32.250',0.66997131,-0.92999145,-0.03003479,28.30008240,0.22604828
'1:32.375',0.66997131,-0.91999756,-0.04000931,28.50012665,0.22604828
'1:32.500',0.66997131,-0.91999756,-0.04000931,28.50012665,0.22604828
'1:32.625',0.65997116,-0.91999756,-0.03003479,28.50012665,0.22402051
'1:32.750',0.66997131,-0.91999756,-0.04000931,28.50012665,0.22604828
'1:32.875',0.66997131,-0.91999756,-0.04000931,28.50012665,0.22102713
'1:33.000',0.66997131,-0.91999756,-0.03003479,28.50012665,0.22102713
'1:33.125',0.66997131,-0.91999756,-0.04000931,28.50012665,0.22102713
'1:33.250',0.66997131,-0.92999145,-0.04000931,28.50012665,0.22102713
'1:33.375',0.66997131,-0.91999756,-0.03003479,28.50012665,0.22102713
'1:33.500',0.67997147,-0.91999756,-0.03003479,28.50012665,0.22102713
'1:33.625',0.67997147,-0.91999756,-0.04000931,28.50012665,0.22102713
'1:33.750',0.67997147,-0.92999145,-0.03003479,28.50012665,0.22102713
'1:33.875',0.66997131,-0.91999756,-0.04000931,28.50012665,0.22102713
'1:34.000',0.66997131,-0.91999756,-0.03003479,28.50012665,0.22102713
'1:34.125',0.66997131,-0.91999756,-0.04000931,28.50012665,0.22102713
'1:34.250',0.66997131,-0.91999756,-0.03003479,28.50012665,0.22102713
'1:34.375',0.66997131,-0.91999756,-0.04000931,28.50012665,0.22102713
'1:34.500',0.66997131,-0.91999756,-0.04000931,28.50012665,0.22102713
'1:34.625',0.66997131,-0.91999756,-0.04000931,28.50012665,0.22102713
'1:34.750',0.66997131,-0.92999145,-0.03003479,28.50012665,0.22102713
'1:34.875',0.66997131,-0.91999756,-0.03003479,28.50012665,0.22102713
'1:35.000',0.66997131,-0.91999756,-0.04000931,28.50012665,0.21909592
'1:35.125',0.66997131,-0.92999145,-0.03003479,28.50012665,0.22102713
'1:35.250',0.66997131,-0.92999145,-0.03003479,28.50012665,0.22102713
'1:35.375',0.66997131,-0.91999756,-0.03003479,28.50012665,0.22102713
'1:35.500',0.66997131,-0.91999756,-0.04000931,28.50012665,0.21909592
'1:35.625',0.66997131,-0.91999756,-0.03003479,28.50012665,0.21909592
'1:35.750',0.66997131,-0.92999145,-0.04000931,28.50012665,0.22102713
'1:35.875',0.66997131,-0.91999756,-0.03003479,28.50012665,0.21909592
'1:36.000',0.66997131,-0.91999756,-0.03003479,28.50012665,0.21909592
'1:36.125',0.67997147,-0.91999756,-0.04000931,28.50012665,0.21909592
'1:36.250',0.66997131,-0.91999756,-0.04000931,28.50012665,0.21909592
'1:36.375',0.67997147,-0.91999756,-0.03003479,28.50012665,0.21706815
'1:36.500',0.66997131,-0.91999756,-0.04000931,28.50012665,0.21706815
'1:36.625',0.66997131,-0.91999756,-0.03003479,28.50012665,0.21706815
'1:36.750',0.67997147,-0.91999756,-0.03003479,28.50012665,0.21706815
'1:36.875',0.67997147,-0.91999756,-0.04000931,28.50012665,0.21706815
'1:37.000',0.66997131,-0.91999756,-0.04000931,28.50012665,0.21706815
'1:37.125',0.66997131,-0.91999756,-0.03003479,28.50012665,0.21706815
'1:37.250',0.66997131,-0.91999756,-0.03003479,28.50012665,0.21706815
'1:37.375',0.66997131,-0.91999756,-0.03003479,28.50012665,0.21706815
'1:37.500',0.66997131,-0.91999756,-0.04000931,28.50012665,0.21706815
'1:37.625',0.66997131,-0.92999145,-0.04000931,28.50012665,0.21706815
'1:37.750',0.66997131,-0.91999756,-0.04000931,28.50012665,0.21706815
'1:37.875',0.66997131,-0.91999756,-0.03003479,28.50012665,0.21706815
'1:38.000',0.66997131,-0.92999145,-0.03003479,28.50012665,0.21706815
'1:38.125',0.66997131,-0.91999756,-0.03003479,28.50012665,0.21706815
'1:38.250',0.66997131,-0.92999145,-0.03003479,28.50012665,0.21706815
'1:38.375',0.66997131,-0.92999145,-0.04000931,28.50012665,0.21706815
'1:38.500',0.66997131,-0.91999756,-0.04000931,28.50012665,0.21407477
'1:38.625',0.66997131,-0.92999145,-0.04000931,28.50012665,0.21407477
'1:38.750',0.66997131,-0.91999756,-0.04000931,28.50012665,0.21407477
'1:38.875',0.66997131,-0.91999756,-0.04000931,28.50012665,0.21407477
'1:39.000',0.66997131,-0.91999756,-0.04000931,28.50012665,0.21407477
'1:39.125',0.66997131,-0.91999756,-0.04000931,28.50012665,0.21407477
'1:39.250',0.67997147,-0.91999756,-0.03003479,28.50012665,0.21407477
'1:39.375',0.66997131,-0.91999756,-0.04000931,28.50012665,0.21407477
'1:39.500',0.67997147,-0.91999756,-0.04000931,28.50012665,0.21407477
'1:39.625',0.67997147,-0.91999756,-0.04000931,28.50012665,0.21407477
'1:39.750',0.67997147,-0.91999756,-0.04000931,28.50012665,0.21407477
'1:39.875',0.67997147,-0.91999756,-0.04000931,28.50012665,0.21204700
'1:40.000',0.66997131,-0.91999756,-0.03003479,28.50012665,0.21204700
'1:40.125',0.66997131,-0.91999756,-0.04000931,28.50012665,0.21204700
'1:40.250',0.67997147,-0.91999756,-0.04000931,28.70003510,0.21204700
'1:40.375',0.66997131,-0.91999756,-0.04000931,28.50012665,0.21204700
'1:40.500',0.66997131,-0.91999756,-0.04000931,28.50012665,0.21204700
'1:40.625',0.66997131,-0.91999756,-0.03003479,28.50012665,0.21204700
'1:40.750',0.67997147,-0.91999756,-0.04000931,28.50012665,0.21204700
'1:40.875',0.66997131,-0.91999756,-0.03003479,28.70003510,0.21204700
'1:41.000',0.66997131,-0.91999756,-0.03003479,28.50012665,0.21204700
'1:41.125',0.66997131,-0.91999756,-0.04000931,28.70003510,0.21204700
'1:41.250',0.66997131,-0.91999756,-0.04000931,28.70003510,0.21204700
'1:41.375',0.67997147,-0.91999756,-0.04000931,28.50012665,0.21204700
'1:41.500',0.66997131,-0.91999756,-0.04000931,28.50012665,0.21204700
'1:41.625',0.66997131,-0.91999756,-0.04000931,28.70003510,0.21204700
'1:41.750',0.66997131,-0.91999756,-0.04000931,28.50012665,0.21204700
'1:41.875',0.66997131,-0.91999756,-0.03003479,28.70003510,0.21204700
'1:42.000',0.66997131,-0.92999145,-0.03003479,28.70003510,0.21204700
'1:42.125',0.67997147,-0.91999756,-0.04000931,28.50012665,0.21204700
'1:42.250',0.66997131,-0.91999756,-0.04000931,28.70003510,0.21204700
'1:42.375',0.66997131,-0.91999756,-0.03003479,28.70003510,0.21204700
'1:42.500',0.66997131,-0.91999756,-0.03003479,28.70003510,0.21204700
'1:42.625',0.66997131,-0.91999756,-0.03003479,28.70003510,0.21204700
'1:42.750',0.67997147,-0.91999756,-0.04000931,28.70003510,0.21204700
'1:42.875',0.66997131,-0.91999756,-0.04000931,28.70003510,0.21204700
'1:43.000',0.66997131,-0.91999756,-0.04000931,28.70003510,0.21204700
'1:43.125',0.66997131,-0.91999756,-0.04000931,28.70003510,0.21204700
'1:43.250',0.66997131,-0.91999756,-0.04000931,28.70003510,0.21204700
'1:43.375',0.66997131,-0.91999756,-0.03003479,28.70003510,0.21204700
'1:43.500',0.66997131,-0.91999756,-0.04000931,28.70003510,0.20905362
'1:43.625',0.66997131,-0.91999756,-0.03003479,28.70003510,0.20905362
'1:43.750',0.65997116,-0.91999756,-0.04000931,28.70003510,0.21204700
'1:43.875',0.66997131,-0.92999145,-0.04000931,28.70003510,0.20905362
'1:44.000',0.66997131,-0.91999756,-0.04000931,28.50012665,0.20905362
'1:44.125',0.66997131,-0.91999756,-0.03003479,28.70003510,0.20905362
'1:44.250',0.66997131,-0.92999145,-0.04000931,28.70003510,0.21108139
'1:44.375',0.66997131,-0.92999145,-0.04000931,28.70003510,0.20702585
'1:44.500',0.66997131,-0.92999145,-0.03003479,28.70003510,0.20702585
'1:44.625',0.66997131,-0.91999756,-0.04000931,28.70003510,0.20702585
'1:44.750',0.66997131,-0.92999145,-0.03003479,28.70003510,0.20702585
'1:44.875',0.66997131,-0.91999756,-0.04000931,28.70003510,0.20702585
'1:45.000',0.66997131,-0.91999756,-0.03003479,28.70003510,0.20702585
'1:45.125',0.67997147,-0.91999756,-0.03003479,28.70003510,0.20702585
'1:45.250',0.66997131,-0.91999756,-0.04000931,28.70003510,0.20702585
'1:45.375',0.66997131,-0.91999756,-0.04000931,28.70003510,0.20702585
'1:45.500',0.67997147,-0.91999756,-0.03003479,28.70003510,0.20702585
'1:45.625',0.66997131,-0.91999756,-0.03003479,28.70003510,0.20702585
'1:45.750',0.67997147,-0.91999756,-0.04000931,28.70003510,0.20702585
'1:45.875',0.67997147,-0.91999756,-0.03003479,28.70003510,0.20606024
'1:46.000',0.67997147,-0.91999756,-0.04000931,28.70003510,0.20702585
'1:46.125',0.67997147,-0.91999756,-0.04000931,28.70003510,0.20702585
'1:46.250',0.66997131,-0.91999756,-0.04000931,28.70003510,0.20403247
'1:46.375',0.66997131,-0.91999756,-0.04000931,28.70003510,0.20702585
'1:46.500',0.66997131,-0.91999756,-0.04000931,28.70003510,0.20702585
'1:46.625',0.66997131,-0.91999756,-0.04000931,28.70003510,0.20200470
'1:46.750',0.66997131,-0.91999756,-0.04000931,28.70003510,0.20702585
'1:46.875',0.66997131,-0.91999756,-0.03003479,28.70003510,0.20403247
'1:47.000',0.67997147,-0.91999756,-0.04000931,28.70003510,0.20200470
'1:47.125',0.66997131,-0.91999756,-0.04000931,28.70003510,0.20702585
'1:47.250',0.66997131,-0.91999756,-0.03003479,28.70003510,0.20403247
'1:47.375',0.66997131,-0.92999145,-0.03003479,28.70003510,0.20200470
'1:47.500',0.66997131,-0.91999756,-0.04000931,28.70003510,0.20200470
'1:47.625',0.66997131,-0.91999756,-0.03003479,28.70003510,0.20200470
'1:47.750',0.66997131,-0.92999145,-0.04000931,28.70003510,0.20200470
'1:47.875',0.66997131,-0.91999756,-0.04000931,28.70003510,0.20200470
'1:48.000',0.67997147,-0.91999756,-0.04000931,28.70003510,0.20200470
'1:48.125',0.67997147,-0.92999145,-0.04000931,28.70003510,0.20200470
'1:48.250',0.67997147,-0.91999756,-0.04000931,28.70003510,0.20200470
'1:48.375',0.66997131,-0.91999756,-0.04000931,28.70003510,0.20200470
'1:48.500',0.67997147,-0.91999756,-0.04000931,28.70003510,0.20200470
'1:48.625',0.66997131,-0.91999756,-0.04000931,28.70003510,0.20200470
'1:48.750',0.66997131,-0.91999756,-0.04000931,28.70003510,0.20200470
'1:48.875',0.66997131,-0.91999756,-0.03003479,28.70003510,0.20200470
'1:49.000',0.67997147,-0.91999756,-0.04000931,28.70003510,0.20200470
'1:49.125',0.66997131,-0.91999756,-0.04000931,28.70003510,0.20200470
'1:49.250',0.66997131,-0.91999756,-0.03003479,28.70003510,0.20200470
'1:49.375',0.66997131,-0.91999756,-0.04000931,28.70003510,0.20200470
'1:49.500',0.66997131,-0.92999145,-0.04000931,28.70003510,0.20200470
'1:49.625',0.66997131,-0.92999145,-0.03003479,28.70003510,0.20200470
'1:49.750',0.66997131,-0.91999756,-0.04000931,28.70003510,0.20200470
'1:49.875',0.66997131,-0.91999756,-0.03003479,28.70003510,0.19708011
'1:50.000',0.66997131,-0.92999145,-0.04000931,28.70003510,0.20007349
'1:50.125',0.66997131,-0.92999145,-0.04000931,28.70003510,0.20007349
'1:50.250',0.66997131,-0.91999756,-0.04000931,28.70003510,0.20007349
'1:50.375',0.66997131,-0.91999756,-0.04000931,28.70003510,0.19708011
'1:50.500',0.66997131,-0.91999756,-0.04000931,28.70003510,0.20007349
'1:50.625',0.66997131,-0.91999756,-0.03003479,28.70003510,0.19708011
'1:50.750',0.66997131,-0.91999756,-0.04000931,28.70003510,0.19708011
'1:50.875',0.66997131,-0.91999756,-0.04000931,28.70003510,0.20007349
'1:51.000',0.66997131,-0.91999756,-0.04000931,28.70003510,0.19708011
'1:51.125',0.66997131,-0.91999756,-0.04000931,28.70003510,0.19708011
'1:51.250',0.66997131,-0.91999756,-0.04000931,28.70003510,0.19708011
'1:51.375',0.66997131,-0.91999756,-0.04000931,28.70003510,0.19708011
'1:51.500',0.66997131,-0.91999756,-0.04000931,28.70003510,0.19708011
'1:51.625',0.66997131,-0.91999756,-0.04000931,28.70003510,0.19708011
'1:51.750',0.67997147,-0.91999756,-0.04000931,28.70003510,0.19708011
'1:51.875',0.66997131,-0.92999145,-0.03003479,28.70003510,0.19708011
'1:52.000',0.67997147,-0.91999756,-0.04000931,28.70003510,0.19708011
'1:52.125',0.66997131,-0.91999756,-0.04000931,28.70003510,0.19708011
'1:52.250',0.66997131,-0.91999756,-0.04000931,28.70003510,0.19708011
'1:52.375',0.66997131,-0.92999145,-0.04000931,28.70003510,0.19708011
'1:52.500',0.66997131,-0.92999145,-0.03003479,28.70003510,0.19505234
'1:52.625',0.66997131,-0.91999756,-0.04000931,28.70003510,0.19708011
'1:52.750',0.66997131,-0.91999756,-0.04000931,28.70003510,0.19408673
'1:52.875',0.66997131,-0.92999145,-0.04000931,28.70003510,0.19708011
'1:53.000',0.66997131,-0.92999145,-0.03003479,28.70003510,0.19505234
'1:53.125',0.66997131,-0.92999145,-0.04000931,28.90007935,0.19505234
'1:53.250',0.66997131,-0.91999756,-0.04000931,28.90007935,0.19505234
'1:53.375',0.66997131,-0.91999756,-0.04000931,28.70003510,0.19505234
'1:53.500',0.66997131,-0.92999145,-0.04000931,28.70003510,0.19505234
'1:53.625',0.66997131,-0.92999145,-0.04000931,28.90007935,0.19505234
'1:53.750',0.66997131,-0.91999756,-0.04000931,28.90007935,0.19505234
'1:53.875',0.66997131,-0.91999756,-0.04000931,28.70003510,0.19505234
'1:54.000',0.66997131,-0.91999756,-0.04000931,28.70003510,0.19505234
'1:54.125',0.66997131,-0.91999756,-0.03003479,28.70003510,0.19205896
'1:54.250',0.66997131,-0.91999756,-0.03003479,28.70003510,0.19505234
'1:54.375',0.67997147,-0.91999756,-0.04000931,28.70003510,0.19205896
'1:54.500',0.67997147,-0.91999756,-0.04000931,28.90007935,0.19205896
'1:54.625',0.66997131,-0.91999756,-0.04000931,28.90007935,0.19505234
'1:54.750',0.66997131,-0.91999756,-0.04000931,28.90007935,0.19205896
'1:54.875',0.67997147,-0.91999756,-0.03003479,28.90007935,0.19505234
'1:55.000',0.66997131,-0.91999756,-0.04000931,28.70003510,0.19205896
'1:55.125',0.67997147,-0.91999756,-0.04000931,28.70003510,0.19205896
'1:55.250',0.66997131,-0.92999145,-0.03003479,28.90007935,0.19205896
'1:55.375',0.66997131,-0.91999756,-0.03003479,28.90007935,0.19505234
'1:55.500',0.66997131,-0.92999145,-0.04000931,28.90007935,0.19205896
'1:55.625',0.66997131,-0.92999145,-0.04000931,28.90007935,0.19205896
'1:55.750',0.66997131,-0.91999756,-0.04000931,28.90007935,0.19205896
'1:55.875',0.66997131,-0.91999756,-0.04000931,28.90007935,0.19205896
'1:56.000',0.66997131,-0.91999756,-0.04000931,28.90007935,0.19205896
'1:56.125',0.66997131,-0.91999756,-0.04000931,28.90007935,0.19205896
'1:56.250',0.65997116,-0.92999145,-0.03003479,28.90007935,0.19205896
'1:56.375',0.66997131,-0.91999756,-0.03003479,28.90007935,0.19205896
'1:56.500',0.66997131,-0.92999145,-0.04000931,28.90007935,0.19205896
'1:56.625',0.67997147,-0.91999756,-0.03003479,28.90007935,0.19205896
'1:56.750',0.66997131,-0.91999756,-0.04000931,28.90007935,0.19205896
'1:56.875',0.66997131,-0.92999145,-0.04000931,28.90007935,0.19205896
'1:57.000',0.66997131,-0.91999756,-0.04000931,28.90007935,0.19205896
'1:57.125',0.66997131,-0.91999756,-0.04000931,28.90007935,0.19205896
'1:57.250',0.66997131,-0.91999756,-0.04000931,28.90007935,0.19205896
'1:57.375',0.67997147,-0.91999756,-0.04000931,28.90007935,0.19205896
'1:57.500',0.66997131,-0.91999756,-0.04000931,28.90007935,0.19205896
'1:57.625',0.67997147,-0.92999145,-0.03003479,28.90007935,0.19205896
'1:57.750',0.67997147,-0.91999756,-0.04000931,28.90007935,0.19205896
'1:57.875',0.66997131,-0.91999756,-0.04000931,28.90007935,0.18906558
'1:58.000',0.66997131,-0.91999756,-0.04000931,28.90007935,0.19205896
'1:58.125',0.66997131,-0.91999756,-0.04000931,28.90007935,0.19205896
'1:58.250',0.66997131,-0.91999756,-0.04000931,28.90007935,0.19205896
'1:58.375',0.66997131,-0.91999756,-0.04000931,28.90007935,0.19205896
'1:58.500',0.66997131,-0.91999756,-0.04000931,28.90007935,0.19205896
'1:58.625',0.66997131,-0.92999145,-0.04000931,28.90007935,0.18906558
'1:58.750',0.66997131,-0.91999756,-0.04000931,28.90007935,0.18906558
'1:58.875',0.66997131,-0.92999145,-0.04000931,28.90007935,0.18906558
'1:59.000',0.66997131,-0.91999756,-0.04000931,28.90007935,0.19003119
'1:59.125',0.65997116,-0.91999756,-0.03003479,28.90007935,0.18906558
'1:59.250',0.65997116,-0.91999756,-0.04000931,28.90007935,0.18906558
'1:59.375',0.66997131,-0.92999145,-0.04000931,28.90007935,0.19003119
'1:59.500',0.66997131,-0.91999756,-0.04000931,28.90007935,0.18703781
'1:59.625',0.66997131,-0.91999756,-0.03003479,28.90007935,0.18703781
'1:59.750',0.67997147,-0.91999756,-0.04000931,28.90007935,0.18703781
'1:59.875',0.65997116,-0.91999756,-0.03003479,28.90007935,0.18703781
'2:00.000',0.66997131,-0.91999756,-0.04000931,28.90007935,0.18703781
'2:00.125',0.66997131,-0.91999756,-0.03003479,28.90007935,0.18703781
'2:00.250',0.66997131,-0.91999756,-0.04000931,28.90007935,0.18703781
'2:00.375',0.66997131,-0.91999756,-0.04000931,28.90007935,0.18703781
'2:00.500',0.67997147,-0.91999756,-0.04000931,28.90007935,0.18703781
'2:00.625',0.67997147,-0.91999756,-0.03003479,28.90007935,0.18703781
'2:00.750',0.66997131,-0.91999756,-0.03003479,28.90007935,0.18703781
'2:00.875',0.66997131,-0.91999756,-0.04000931,28.90007935,0.18703781
'2:01.000',0.66997131,-0.91999756,-0.04000931,28.90007935,0.18703781
'2:01.125',0.66997131,-0.91999756,-0.04000931,28.90007935,0.18703781
'2:01.250',0.66997131,-0.91999756,-0.04000931,28.90007935,0.18703781
'2:01.375',0.66997131,-0.91999756,-0.04000931,28.90007935,0.18703781
'2:01.500',0.66997131,-0.91999756,-0.04000931,28.90007935,0.18703781
'2:01.625',0.66997131,-0.91999756,-0.04000931,28.90007935,0.18703781
'2:01.750',0.66997131,-0.91999756,-0.04000931,28.90007935,0.18703781
'2:01.875',0.66997131,-0.92999145,-0.04000931,28.90007935,0.18703781
'2:02.000',0.66997131,-0.91999756,-0.04000931,28.90007935,0.18703781
'2:02.125',0.66997131,-0.92999145,-0.04000931,28.90007935,0.18703781
'2:02.250',0.66997131,-0.92999145,-0.04000931,28.90007935,0.18703781
'2:02.375',0.66997131,-0.91999756,-0.04000931,28.90007935,0.18703781
'2:02.500',0.66997131,-0.92999145,-0.04000931,28.90007935,0.18501004
'2:02.625',0.66997131,-0.91999756,-0.04000931,28.90007935,0.18501004
'2:02.750',0.66997131,-0.91999756,-0.04000931,29.10012360,0.18501004
'2:02.875',0.67997147,-0.91999756,-0.04000931,28.90007935,0.18703781
'2:03.000',0.67997147,-0.91999756,-0.03003479,28.90007935,0.18501004
'2:03.125',0.66997131,-0.91999756,-0.04000931,28.90007935,0.18501004
'2:03.250',0.66997131,-0.91999756,-0.04000931,28.90007935,0.18201666
'2:03.375',0.67997147,-0.91999756,-0.03003479,29.10012360,0.18201666
'2:03.500',0.66997131,-0.91999756,-0.04000931,28.90007935,0.18501004
'2:03.625',0.66997131,-0.92999145,-0.04000931,28.90007935,0.18201666
'2:03.750',0.66997131,-0.91999756,-0.04000931,28.90007935,0.18201666
'2:03.875',0.66997131,-0.92999145,-0.03003479,28.90007935,0.18201666
'2:04.000',0.66997131,-0.92999145,-0.04000931,28.90007935,0.18201666
'2:04.125',0.67997147,-0.92999145,-0.03003479,28.90007935,0.18201666
'2:04.250',0.66997131,-0.91999756,-0.04000931,29.10012360,0.18201666
'2:04.375',0.66997131,-0.92999145,-0.04000931,29.10012360,0.18201666
'2:04.500',0.66997131,-0.91999756,-0.04000931,28.90007935,0.18201666
'2:04.625',0.66997131,-0.91999756,-0.04000931,29.10012360,0.18201666
'2:04.750',0.66997131,-0.92999145,-0.03003479,28.90007935,0.18201666
'2:04.875',0.66997131,-0.91999756,-0.04000931,29.10012360,0.18201666
'2:05.000',0.66997131,-0.91999756,-0.04000931,28.90007935,0.18201666
'2:05.125',0.66997131,-0.91999756,-0.04000931,28.90007935,0.18008545
'2:05.250',0.66997131,-0.91999756,-0.04000931,28.90007935,0.18201666
'2:05.375',0.66997131,-0.91999756,-0.04000931,28.90007935,0.18201666
'2:05.500',0.66997131,-0.91999756,-0.04000931,28.90007935,0.18201666
'2:05.625',0.66997131,-0.91999756,-0.03003479,29.10012360,0.18201666
'2:05.750',0.66997131,-0.91999756,-0.04000931,28.90007935,0.18201666
'2:05.875',0.67997147,-0.91999756,-0.04000931,29.10012360,0.18201666
'2:06.000',0.66997131,-0.91999756,-0.03003479,29.10012360,0.18008545
'2:06.125',0.66997131,-0.91999756,-0.04000931,29.10012360,0.18008545
'2:06.250',0.67997147,-0.91999756,-0.04000931,29.10012360,0.18008545
'2:06.375',0.66997131,-0.91999756,-0.03003479,29.10012360,0.18008545
'2:06.500',0.67997147,-0.91999756,-0.04000931,29.10012360,0.18008545
'2:06.625',0.66997131,-0.91999756,-0.03003479,28.90007935,0.18008545
'2:06.750',0.67997147,-0.92999145,-0.03003479,29.10012360,0.18008545
'2:06.875',0.66997131,-0.91999756,-0.04000931,29.10012360,0.18008545
'2:07.000',0.66997131,-0.91999756,-0.04000931,29.10012360,0.18008545
'2:07.125',0.66997131,-0.91999756,-0.04000931,29.10012360,0.18008545
'2:07.250',0.66997131,-0.91999756,-0.03003479,29.10012360,0.18008545
'2:07.375',0.66997131,-0.92999145,-0.03003479,29.10012360,0.18008545
'2:07.500',0.66997131,-0.91999756,-0.03003479,29.10012360,0.18008545
'2:07.625',0.66997131,-0.91999756,-0.04000931,29.10012360,0.18008545
'2:07.750',0.66997131,-0.91999756,-0.04000931,29.10012360,0.17805768
'2:07.875',0.66997131,-0.92999145,-0.04000931,28.90007935,0.17805768
'2:08.000',0.67997147,-0.91999756,-0.03003479,29.10012360,0.17805768
'2:08.125',0.66997131,-0.91999756,-0.04000931,29.10012360,0.18008545
'2:08.250',0.66997131,-0.91999756,-0.03003479,29.10012360,0.17805768
'2:08.375',0.66997131,-0.91999756,-0.04000931,29.10012360,0.18008545
'2:08.500',0.66997131,-0.91999756,-0.04000931,29.10012360,0.18008545
'2:08.625',0.66997131,-0.91999756,-0.03003479,29.10012360,0.17805768
'2:08.750',0.66997131,-0.91999756,-0.04000931,28.90007935,0.17709207
'2:08.875',0.66997131,-0.91999756,-0.04000931,29.10012360,0.17805768
'2:09.000',0.66997131,-0.91999756,-0.03003479,29.10012360,0.17805768
'2:09.125',0.66997131,-0.91999756,-0.04000931,29.10012360,0.17805768
'2:09.250',0.66997131,-0.91999756,-0.04000931,29.10012360,0.17805768
'2:09.375',0.66997131,-0.91999756,-0.04000931,29.10012360,0.17805768
'2:09.500',0.66997131,-0.91999756,-0.04000931,29.10012360,0.17805768
'2:09.625',0.66997131,-0.91999756,-0.04000931,29.10012360,0.17709207
'2:09.750',0.65997116,-0.91999756,-0.04000931,29.10012360,0.17805768
'2:09.875',0.65997116,-0.92999145,-0.03003479,29.10012360,0.17805768
'2:10.000',0.66997131,-0.91999756,-0.04000931,29.10012360,0.17805768
'2:10.125',0.66997131,-0.91999756,-0.03003479,29.10012360,0.17805768
'2:10.250',0.66997131,-0.91999756,-0.04000931,29.10012360,0.17805768
'2:10.375',0.66997131,-0.92999145,-0.04000931,29.10012360,0.17805768
'2:10.500',0.65997116,-0.91999756,-0.03003479,29.10012360,0.17805768
'2:10.625',0.65997116,-0.91999756,-0.03003479,29.10012360,0.17805768
'2:10.750',0.66997131,-0.91999756,-0.03003479,29.10012360,0.17805768
'2:10.875',0.67997147,-0.91999756,-0.03003479,29.10012360,0.17805768
'2:11.000',0.66997131,-0.91999756,-0.04000931,29.10012360,0.17805768
'2:11.125',0.67997147,-0.91999756,-0.04000931,29.10012360,0.17805768
'2:11.250',0.66997131,-0.91999756,-0.04000931,29.10012360,0.17805768
'2:11.375',0.66997131,-0.91999756,-0.03003479,29.10012360,0.17805768
'2:11.500',0.67997147,-0.91999756,-0.03003479,29.10012360,0.17805768
'2:11.625',0.66997131,-0.91999756,-0.04000931,29.10012360,0.17805768
'2:11.750',0.66997131,-0.91999756,-0.03003479,29.10012360,0.17805768
'2:11.875',0.66997131,-0.91999756,-0.04000931,29.10012360,0.17805768
'2:12.000',0.66997131,-0.91999756,-0.04000931,29.10012360,0.17805768
'2:12.125',0.66997131,-0.91999756,-0.04000931,29.10012360,0.17805768
'2:12.250',0.66997131,-0.91999756,-0.04000931,29.10012360,0.17805768
'2:12.375',0.66997131,-0.91999756,-0.04000931,29.10012360,0.17805768
'2:12.500',0.65997116,-0.91999756,-0.04000931,29.10012360,0.17506430
'2:12.625',0.66997131,-0.91999756,-0.04000931,29.10012360,0.17506430
'2:12.750',0.66997131,-0.92999145,-0.03003479,29.10012360,0.17805768
'2:12.875',0.66997131,-0.91999756,-0.03003479,29.10012360,0.17805768
'2:13.000',0.66997131,-0.92999145,-0.04000931,29.10012360,0.17506430
'2:13.125',0.66997131,-0.91999756,-0.04000931,29.10012360,0.17303653
'2:13.250',0.66997131,-0.91999756,-0.03003479,29.10012360,0.17506430
'2:13.375',0.66997131,-0.91999756,-0.03003479,29.10012360,0.17506430
'2:13.500',0.66997131,-0.91999756,-0.04000931,29.10012360,0.17506430
'2:13.625',0.66997131,-0.91999756,-0.03003479,29.10012360,0.17506430
'2:13.750',0.66997131,-0.91999756,-0.04000931,29.10012360,0.17303653
'2:13.875',0.66997131,-0.91999756,-0.04000931,29.10012360,0.17506430
'2:14.000',0.66997131,-0.91999756,-0.04000931,29.10012360,0.17303653
'2:14.125',0.67997147,-0.91999756,-0.03003479,29.10012360,0.17303653
'2:14.250',0.67997147,-0.91999756,-0.03003479,29.10012360,0.17303653
'2:14.375',0.66997131,-0.91999756,-0.04000931,29.10012360,0.17303653
'2:14.500',0.66997131,-0.91999756,-0.04000931,29.10012360,0.17303653
'2:14.625',0.66997131,-0.91999756,-0.04000931,29.10012360,0.17303653
'2:14.750',0.66997131,-0.91999756,-0.04000931,29.10012360,0.17303653
'2:14.875',0.66997131,-0.92999145,-0.04000931,29.10012360,0.17303653
'2:15.000',0.66997131,-0.91999756,-0.03003479,29.10012360,0.17303653
'2:15.125',0.66997131,-0.91999756,-0.03003479,29.10012360,0.17303653
'2:15.250',0.66997131,-0.91999756,-0.03003479,29.10012360,0.17303653
'2:15.375',0.66997131,-0.91999756,-0.03003479,29.10012360,0.17303653
'2:15.500',0.65997116,-0.91999756,-0.03003479,29.10012360,0.17303653
'2:15.625',0.66997131,-0.92999145,-0.03003479,29.10012360,0.17303653
'2:15.750',0.66997131,-0.91999756,-0.04000931,29.10012360,0.17303653
'2:15.875',0.66997131,-0.92999145,-0.04000931,29.10012360,0.17303653
'2:16.000',0.66997131,-0.91999756,-0.04000931,29.10012360,0.17303653
'2:16.125',0.66997131,-0.92999145,-0.04000931,29.10012360,0.17303653
'2:16.250',0.66997131,-0.92999145,-0.03003479,29.10012360,0.17303653
'2:16.375',0.66997131,-0.91999756,-0.04000931,29.10012360,0.17207093
'2:16.500',0.65997116,-0.91999756,-0.03003479,29.30003204,0.17303653
'2:16.625',0.66997131,-0.91999756,-0.04000931,29.10012360,0.17303653
'2:16.750',0.66997131,-0.91999756,-0.03003479,29.10012360,0.17303653
'2:16.875',0.67997147,-0.91999756,-0.04000931,29.10012360,0.17303653
'2:17.000',0.67997147,-0.91999756,-0.03003479,29.30003204,0.17303653
'2:17.125',0.66997131,-0.91999756,-0.03003479,29.10012360,0.17303653
'2:17.250',0.67997147,-0.91999756,-0.04000931,29.10012360,0.17303653
'2:17.375',0.66997131,-0.91999756,-0.04000931,29.10012360,0.17207093
'2:17.500',0.66997131,-0.91999756,-0.04000931,29.10012360,0.17303653
'2:17.625',0.65997116,-0.91999756,-0.04000931,29.30003204,0.17207093
'2:17.750',0.66997131,-0.91999756,-0.04000931,29.30003204,0.17303653
'2:17.875',0.67997147,-0.91999756,-0.03003479,29.30003204,0.17303653
'2:18.000',0.66997131,-0.91999756,-0.03003479,29.30003204,0.17303653
'2:18.125',0.65997116,-0.91999756,-0.03003479,29.10012360,0.17303653
'2:18.250',0.65997116,-0.91999756,-0.04000931,29.30003204,0.17303653
'2:18.375',0.66997131,-0.92999145,-0.03003479,29.30003204,0.17303653
'2:18.500',0.66997131,-0.91999756,-0.04000931,29.30003204,0.17303653
'2:18.625',0.66997131,-0.91999756,-0.03003479,29.10012360,0.17303653
'2:18.750',0.65997116,-0.91999756,-0.04000931,29.10012360,0.17303653
'2:18.875',0.66997131,-0.91999756,-0.03003479,29.10012360,0.17303653
'2:19.000',0.66997131,-0.91999756,-0.03003479,29.30003204,0.17303653
'2:19.125',0.66997131,-0.92999145,-0.04000931,29.30003204,0.17303653
'2:19.250',0.65997116,-0.92999145,-0.04000931,29.30003204,0.17303653
'2:19.375',0.66997131,-0.91999756,-0.03003479,29.30003204,0.17303653
'2:19.500',0.66997131,-0.91999756,-0.04000931,29.30003204,0.17303653
'2:19.625',0.66997131,-0.91999756,-0.04000931,29.30003204,0.17303653
'2:19.750',0.66997131,-0.91999756,-0.04000931,29.30003204,0.17303653
'2:19.875',0.66997131,-0.91999756,-0.03003479,29.30003204,0.17303653
'2:20.000',0.66997131,-0.91999756,-0.03003479,29.30003204,0.17207093
'2:20.125',0.66997131,-0.91999756,-0.03003479,29.30003204,0.17303653
'2:20.250',0.66997131,-0.91999756,-0.03003479,29.30003204,0.17303653
'2:20.375',0.66997131,-0.92999145,-0.03003479,29.30003204,0.17303653
'2:20.500',0.66997131,-0.91999756,-0.03003479,29.30003204,0.17303653
'2:20.625',0.66997131,-0.92999145,-0.03003479,29.30003204,0.17100876
'2:20.750',0.66997131,-0.91999756,-0.04000931,29.30003204,0.17100876
'2:20.875',0.65997116,-0.91999756,-0.04000931,29.30003204,0.17303653
'2:21.000',0.65997116,-0.92999145,-0.03003479,29.30003204,0.17100876
'2:21.125',0.66997131,-0.91999756,-0.04000931,29.10012360,0.17100876
'2:21.250',0.66997131,-0.91999756,-0.03003479,29.30003204,0.17100876
'2:21.375',0.65997116,-0.91999756,-0.03003479,29.10012360,0.16801538
'2:21.500',0.65997116,-0.92999145,-0.03003479,29.30003204,0.17100876
'2:21.625',0.66997131,-0.92999145,-0.04000931,29.30003204,0.17100876
'2:21.750',0.66997131,-0.91999756,-0.03003479,29.10012360,0.16801538
'2:21.875',0.66997131,-0.91999756,-0.03003479,29.30003204,0.16801538
'2:22.000',0.66997131,-0.91999756,-0.04000931,29.30003204,0.16801538
'2:22.125',0.67997147,-0.91999756,-0.03003479,29.30003204,0.16801538
'2:22.250',0.66997131,-0.91999756,-0.04000931,29.30003204,0.16801538
'2:22.375',0.66997131,-0.91999756,-0.04000931,29.30003204,0.16801538
'2:22.500',0.66997131,-0.91999756,-0.04000931,29.30003204,0.16801538
'2:22.625',0.66997131,-0.91999756,-0.04000931,29.30003204,0.17100876
'2:22.750',0.66997131,-0.91999756,-0.04000931,29.30003204,0.16801538
'2:22.875',0.67997147,-0.91999756,-0.03003479,29.30003204,0.16801538
'2:23.000',0.66997131,-0.91999756,-0.04000931,29.30003204,0.16801538
'2:23.125',0.66997131,-0.91999756,-0.04000931,29.30003204,0.16801538
'2:23.250',0.65997116,-0.91999756,-0.04000931,29.30003204,0.16801538
'2:23.375',0.66997131,-0.91999756,-0.04000931,29.30003204,0.16801538
'2:23.500',0.65997116,-0.91999756,-0.03003479,29.30003204,0.16801538
'2:23.625',0.66997131,-0.91999756,-0.03003479,29.30003204,0.16801538
'2:23.750',0.65997116,-0.92999145,-0.04000931,29.30003204,0.16801538
'2:23.875',0.66997131,-0.92999145,-0.03003479,29.30003204,0.16801538
'2:24.000',0.65997116,-0.92999145,-0.03003479,29.30003204,0.16608417
'2:24.125',0.65997116,-0.92999145,-0.03003479,29.30003204,0.16801538
'2:24.250',0.65997116,-0.92999145,-0.04000931,29.30003204,0.16801538
'2:24.375',0.66997131,-0.91999756,-0.03003479,29.30003204,0.16608417
'2:24.500',0.66997131,-0.91999756,-0.04000931,29.30003204,0.16801538
'2:24.625',0.65997116,-0.91999756,-0.03003479,29.30003204,0.16801538
'2:24.750',0.66997131,-0.92999145,-0.03003479,29.30003204,0.16608417
'2:24.875',0.66997131,-0.91999756,-0.03003479,29.30003204,0.16608417
'2:25.000',0.66997131,-0.91999756,-0.04000931,29.30003204,0.16608417
'2:25.125',0.66997131,-0.91999756,-0.04000931,29.30003204,0.16608417
'2:25.250',0.66997131,-0.91999756,-0.04000931,29.30003204,0.16608417
'2:25.375',0.66997131,-0.91999756,-0.03003479,29.30003204,0.16608417
'2:25.500',0.66997131,-0.91999756,-0.04000931,29.30003204,0.16608417
'2:25.625',0.66997131,-0.92999145,-0.03003479,29.30003204,0.16608417
'2:25.750',0.66997131,-0.91999756,-0.03003479,29.30003204,0.16608417
'2:25.875',0.66997131,-0.92999145,-0.04000931,29.30003204,0.16309079
'2:26.000',0.66997131,-0.92999145,-0.04000931,29.30003204,0.16608417
'2:26.125',0.65997116,-0.92999145,-0.03003479,29.30003204,0.16608417
'2:26.250',0.65997116,-0.92999145,-0.03003479,29.30003204,0.16309079
'2:26.375',0.65997116,-0.92999145,-0.03003479,29.30003204,0.16608417
'2:26.500',0.66997131,-0.92999145,-0.03003479,29.30003204,0.16608417
'2:26.625',0.65997116,-0.91999756,-0.03003479,29.30003204,0.16309079
'2:26.750',0.65997116,-0.92999145,-0.03003479,29.30003204,0.16309079
'2:26.875',0.65997116,-0.91999756,-0.03003479,29.30003204,0.16309079
'2:27.000',0.66997131,-0.91999756,-0.03003479,29.30003204,0.16309079
'2:27.125',0.66997131,-0.92999145,-0.04000931,29.30003204,0.16309079
'2:27.250',0.66997131,-0.91999756,-0.04000931,29.30003204,0.16309079
'2:27.375',0.67997147,-0.91999756,-0.04000931,29.30003204,0.16309079
'2:27.500',0.66997131,-0.91999756,-0.04000931,29.50007630,0.16309079
'2:27.625',0.66997131,-0.91999756,-0.04000931,29.50007630,0.16309079
'2:27.750',0.67997147,-0.91999756,-0.04000931,29.70012055,0.16309079
'2:27.875',0.67997147,-0.86999313,-0.01001160,29.50007630,0.16309079
'2:28.000',0.70997192,-0.89997482,-0.04000931,29.30003204,0.16309079
'2:28.125',0.70997192,-0.89997482,-0.04000931,29.30003204,0.16309079
'2:28.250',0.70997192,-0.89997482,-0.04000931,29.30003204,0.16309079
'2:28.375',0.71997208,-0.88998093,-0.04000931,29.30003204,0.16309079
'2:28.500',0.71997208,-0.89997482,-0.04000931,29.30003204,0.16309079
'2:28.625',0.71997208,-0.88998093,-0.04000931,29.30003204,0.16309079
'2:28.750',0.71997208,-0.88998093,-0.04000931,29.30003204,0.16309079
'2:28.875',0.71997208,-0.88998093,-0.04000931,29.30003204,0.16309079
'2:29.000',0.70997192,-0.88998093,-0.04000931,29.30003204,0.16309079
'2:29.125',0.71997208,-0.88998093,-0.04000931,29.30003204,0.16309079
'2:29.250',0.71997208,-0.88998093,-0.04000931,29.30003204,0.16309079
'2:29.375',0.71997208,-0.88998093,-0.04000931,29.30003204,0.16309079
'2:29.500',0.71997208,-0.88998093,-0.04000931,29.30003204,0.16309079
'2:29.625',0.71997208,-0.88998093,-0.04000931,29.30003204,0.16309079
'2:29.750',0.71997208,-0.88998093,-0.04000931,29.30003204,0.16309079
'2:29.875',0.71997208,-0.89997482,-0.04000931,29.30003204,0.16309079
'2:30.000',0.71997208,-0.88998093,-0.04000931,29.30003204,0.16309079
'2:30.125',0.71997208,-0.88998093,-0.04000931,29.30003204,0.16309079
'2:30.250',0.71997208,-0.88998093,-0.04000931,29.50007630,0.16309079
'2:30.375',0.71997208,-0.88998093,-0.04000931,29.50007630,0.16106302
'2:30.500',0.72997223,-0.88998093,-0.03003479,29.30003204,0.16309079
'2:30.625',0.71997208,-0.88998093,-0.04000931,29.30003204,0.16309079
'2:30.750',0.71997208,-0.88998093,-0.04000931,29.50007630,0.16106302
'2:30.875',0.71997208,-0.88998093,-0.04000931,29.50007630,0.16309079
'2:31.000',0.71997208,-0.88998093,-0.04000931,29.30003204,0.16309079
'2:31.125',0.71997208,-0.88998093,-0.04000931,29.30003204,0.16106302
'2:31.250',0.71997208,-0.88998093,-0.04000931,29.50007630,0.16106302
'2:31.375',0.71997208,-0.88998093,-0.04000931,29.50007630,0.16106302
'2:31.500',0.71997208,-0.88998093,-0.04000931,29.50007630,0.16106302
'2:31.625',0.71997208,-0.88998093,-0.04000931,29.30003204,0.16106302
'2:31.750',0.71997208,-0.88998093,-0.04000931,29.30003204,0.16106302
'2:31.875',0.71997208,-0.88998093,-0.04000931,29.50007630,0.16106302
'2:32.000',0.71997208,-0.88998093,-0.04000931,29.50007630,0.16106302
'2:32.125',0.71997208,-0.88998093,-0.04000931,29.50007630,0.16106302
'2:32.250',0.71997208,-0.88998093,-0.04000931,29.30003204,0.15903525
'2:32.375',0.71997208,-0.88998093,-0.04000931,29.50007630,0.16106302
'2:32.500',0.71997208,-0.88998093,-0.04000931,29.50007630,0.16106302
'2:32.625',0.71997208,-0.88998093,-0.04000931,29.50007630,0.15903525
'2:32.750',0.71997208,-0.89997482,-0.03003479,29.30003204,0.16106302
'2:32.875',0.72997223,-0.88998093,-0.04000931,29.50007630,0.16106302
'2:33.000',0.72997223,-0.88998093,-0.04000931,29.50007630,0.15903525
'2:33.125',0.71997208,-0.88998093,-0.04000931,29.30003204,0.15903525
'2:33.250',0.72997223,-0.88998093,-0.04000931,29.30003204,0.15903525
'2:33.375',0.72997223,-0.88998093,-0.04000931,29.50007630,0.15903525
'2:33.500',0.72997223,-0.88998093,-0.04000931,29.30003204,0.15903525
'2:33.625',0.72997223,-0.88998093,-0.04000931,29.50007630,0.15903525
'2:33.750',0.72997223,-0.88998093,-0.03003479,29.50007630,0.15903525
'2:33.875',0.72997223,-0.88998093,-0.04000931,29.30003204,0.15903525
'2:34.000',0.71997208,-0.88998093,-0.04000931,29.50007630,0.15903525
'2:34.125',0.72997223,-0.88998093,-0.04000931,29.50007630,0.15903525
'2:34.250',0.71997208,-0.88998093,-0.04000931,29.50007630,0.15903525
'2:34.375',0.72997223,-0.88998093,-0.04000931,29.50007630,0.15604187
'2:34.500',0.72997223,-0.88998093,-0.04000931,29.50007630,0.15903525
'2:34.625',0.71997208,-0.88998093,-0.04000931,29.50007630,0.15903525
'2:34.750',0.71997208,-0.88998093,-0.04000931,29.50007630,0.15903525
'2:34.875',0.71997208,-0.88998093,-0.04000931,29.50007630,0.15903525
'2:35.000',0.71997208,-0.88998093,-0.04000931,29.50007630,0.15903525
'2:35.125',0.71997208,-0.88998093,-0.04000931,29.50007630,0.15903525
'2:35.250',0.71997208,-0.88998093,-0.04000931,29.50007630,0.15604187
'2:35.375',0.71997208,-0.88998093,-0.04000931,29.50007630,0.15903525
'2:35.500',0.70997192,-0.88998093,-0.04000931,29.50007630,0.15903525
'2:35.625',0.72997223,-0.88998093,-0.04000931,29.50007630,0.15903525
'2:35.750',0.71997208,-0.88998093,-0.04000931,29.50007630,0.15903525
'2:35.875',0.71997208,-0.88998093,-0.04000931,29.50007630,0.15903525
'2:36.000',0.71997208,-0.88998093,-0.04000931,29.50007630,0.15401410
'2:36.125',0.72997223,-0.88998093,-0.04000931,29.50007630,0.15401410
'2:36.250',0.71997208,-0.88998093,-0.04000931,29.50007630,0.15604187
'2:36.375',0.71997208,-0.88998093,-0.04000931,29.50007630,0.15903525
'2:36.500',0.71997208,-0.88998093,-0.04000931,29.50007630,0.15401410
'2:36.625',0.72997223,-0.88998093,-0.04000931,29.50007630,0.15401410
'2:36.750',0.72997223,-0.88998093,-0.04000931,29.50007630,0.15604187
'2:36.875',0.72997223,-0.88998093,-0.04000931,29.50007630,0.15401410
'2:37.000',0.73997238,-0.88998093,-0.04000931,29.50007630,0.15401410
'2:37.125',0.72997223,-0.88998093,-0.04000931,29.50007630,0.15401410
'2:37.250',0.71997208,-0.88998093,-0.04000931,29.50007630,0.15401410
'2:37.375',0.71997208,-0.88998093,-0.04000931,29.50007630,0.15401410
'2:37.500',0.71997208,-0.88998093,-0.04000931,29.50007630,0.15401410
'2:37.625',0.71997208,-0.88998093,-0.04000931,29.50007630,0.15401410
'2:37.750',0.72997223,-0.88998093,-0.04000931,29.50007630,0.15401410
'2:37.875',0.71997208,-0.88998093,-0.04000931,29.50007630,0.15401410
'2:38.000',0.71997208,-0.88998093,-0.04000931,29.50007630,0.15401410
'2:38.125',0.71997208,-0.88998093,-0.04000931,29.50007630,0.15401410
'2:38.250',0.71997208,-0.88998093,-0.04000931,29.50007630,0.15401410
'2:38.375',0.71997208,-0.88998093,-0.04000931,29.50007630,0.15401410
'2:38.500',0.71997208,-0.88998093,-0.04000931,29.50007630,0.15401410
'2:38.625',0.72997223,-0.88998093,-0.04000931,29.50007630,0.15401410
'2:38.750',0.71997208,-0.88998093,-0.04000931,29.50007630,0.15401410
'2:38.875',0.71997208,-0.88998093,-0.04000931,29.50007630,0.15401410
'2:39.000',0.71997208,-0.88998093,-0.04000931,29.50007630,0.15401410
'2:39.125',0.72997223,-0.88998093,-0.04000931,29.50007630,0.15401410
'2:39.250',0.71997208,-0.88998093,-0.04000931,29.50007630,0.15401410
'2:39.375',0.72997223,-0.88998093,-0.04000931,29.50007630,0.15401410
'2:39.500',0.72997223,-0.88998093,-0.04000931,29.50007630,0.15401410
'2:39.625',0.72997223,-0.88998093,-0.04000931,29.50007630,0.15401410
'2:39.750',0.72997223,-0.88998093,-0.04000931,29.50007630,0.15102072
'2:39.875',0.72997223,-0.88998093,-0.04000931,29.50007630,0.15102072
'2:40.000',0.73997238,-0.88998093,-0.04000931,29.50007630,0.15208289
'2:40.125',0.72997223,-0.88998093,-0.04000931,29.50007630,0.15208289
'2:40.250',0.72997223,-0.87998703,-0.04000931,29.50007630,0.15208289
'2:40.375',0.71997208,-0.88998093,-0.04000931,29.50007630,0.15208289
'2:40.500',0.71997208,-0.88998093,-0.04000931,29.50007630,0.15208289
'2:40.625',0.72997223,-0.88998093,-0.04000931,29.50007630,0.15102072
'2:40.750',0.71997208,-0.88998093,-0.04000931,29.50007630,0.15208289
'2:40.875',0.71997208,-0.88998093,-0.04000931,29.50007630,0.15208289
'2:41.000',0.72997223,-0.88998093,-0.04000931,29.50007630,0.14908951
'2:41.125',0.71997208,-0.88998093,-0.04000931,29.50007630,0.14908951
'2:41.250',0.71997208,-0.88998093,-0.04000931,29.50007630,0.15208289
'2:41.375',0.71997208,-0.88998093,-0.04000931,29.50007630,0.15208289
'2:41.500',0.71997208,-0.88998093,-0.04000931,29.50007630,0.14908951
'2:41.625',0.71997208,-0.88998093,-0.04000931,29.50007630,0.15208289
'2:41.750',0.72997223,-0.88998093,-0.04000931,29.50007630,0.14908951
'2:41.875',0.71997208,-0.88998093,-0.04000931,29.50007630,0.14908951
'2:42.000',0.72997223,-0.88998093,-0.04000931,29.50007630,0.14908951
'2:42.125',0.72997223,-0.88998093,-0.04000931,29.50007630,0.14908951
'2:42.250',0.72997223,-0.88998093,-0.04000931,29.50007630,0.14908951
'2:42.375',0.72997223,-0.88998093,-0.04000931,29.50007630,0.14908951
'2:42.500',0.72997223,-0.88998093,-0.04000931,29.50007630,0.14908951
'2:42.625',0.72997223,-0.88998093,-0.04000931,29.50007630,0.14908951
'2:42.750',0.72997223,-0.88998093,-0.04000931,29.50007630,0.14908951
'2:42.875',0.72997223,-0.88998093,-0.04000931,29.50007630,0.14908951
'2:43.000',0.72997223,-0.88998093,-0.04000931,29.50007630,0.14908951
'2:43.125',0.72997223,-0.88998093,-0.04000931,29.50007630,0.14908951
'2:43.250',0.72997223,-0.88998093,-0.04000931,29.50007630,0.14908951
'2:43.375',0.71997208,-0.88998093,-0.04000931,29.50007630,0.14908951
'2:43.500',0.72997223,-0.88998093,-0.04000931,29.50007630,0.14908951
'2:43.625',0.71997208,-0.88998093,-0.04000931,29.50007630,0.14908951
'2:43.750',0.71997208,-0.88998093,-0.04000931,29.50007630,0.14908951
'2:43.875',0.72997223,-0.88998093,-0.04000931,29.50007630,0.14908951
'2:44.000',0.72997223,-0.88998093,-0.04000931,29.50007630,0.14908951
'2:44.125',0.72997223,-0.88998093,-0.04000931,29.50007630,0.14908951
'2:44.250',0.72997223,-0.88998093,-0.04000931,29.50007630,0.14908951
'2:44.375',0.71997208,-0.88998093,-0.04000931,29.70012055,0.14908951
'2:44.500',0.71997208,-0.88998093,-0.04000931,29.70012055,0.14908951
'2:44.625',0.71997208,-0.88998093,-0.04000931,29.70012055,0.14908951
'2:44.750',0.72997223,-0.88998093,-0.04000931,29.50007630,0.14908951
'2:44.875',0.72997223,-0.88998093,-0.04000931,29.50007630,0.14908951
'2:45.000',0.72997223,-0.88998093,-0.04000931,29.50007630,0.14908951
'2:45.125',0.71997208,-0.88998093,-0.04000931,29.50007630,0.14908951
'2:45.250',0.72997223,-0.88998093,-0.04000931,29.50007630,0.14908951
'2:45.375',0.71997208,-0.88998093,-0.04000931,29.50007630,0.14706174
'2:45.500',0.72997223,-0.88998093,-0.04000931,29.50007630,0.14706174
'2:45.625',0.73997238,-0.88998093,-0.04000931,29.50007630,0.14706174
'2:45.750',0.71997208,-0.88998093,-0.04000931,29.50007630,0.14706174
'2:45.875',0.72997223,-0.88998093,-0.04000931,29.50007630,0.14706174
'2:46.000',0.71997208,-0.88998093,-0.04000931,29.70012055,0.14706174
'2:46.125',0.71997208,-0.88998093,-0.04000931,29.70012055,0.14706174
'2:46.250',0.71997208,-0.88998093,-0.04000931,29.70012055,0.14706174
'2:46.375',0.71997208,-0.88998093,-0.04000931,29.50007630,0.14706174
'2:46.500',0.71997208,-0.88998093,-0.04000931,29.50007630,0.14706174
'2:46.625',0.71997208,-0.88998093,-0.04000931,29.50007630,0.14706174
'2:46.750',0.71997208,-0.88998093,-0.04000931,29.70012055,0.14706174
'2:46.875',0.71997208,-0.88998093,-0.04000931,29.50007630,0.14706174
'2:47.000',0.71997208,-0.88998093,-0.04000931,29.50007630,0.14706174
'2:47.125',0.71997208,-0.88998093,-0.04000931,29.70012055,0.14706174
'2:47.250',0.71997208,-0.88998093,-0.04000931,29.50007630,0.14706174
'2:47.375',0.71997208,-0.88998093,-0.04000931,29.50007630,0.14706174
'2:47.500',0.72997223,-0.88998093,-0.04000931,29.50007630,0.14706174
'2:47.625',0.71997208,-0.88998093,-0.04000931,29.50007630,0.14706174
'2:47.750',0.72997223,-0.88998093,-0.04000931,29.50007630,0.14706174
'2:47.875',0.71997208,-0.88998093,-0.04000931,29.70012055,0.14706174
'2:48.000',0.73997238,-0.88998093,-0.04000931,29.70012055,0.14706174
'2:48.125',0.72997223,-0.87998703,-0.04000931,29.50007630,0.14706174
'2:48.250',0.72997223,-0.88998093,-0.04000931,29.70012055,0.14706174
'2:48.375',0.72997223,-0.87998703,-0.04000931,29.70012055,0.14706174
'2:48.500',0.72997223,-0.87998703,-0.04000931,29.70012055,0.14706174
'2:48.625',0.72997223,-0.87998703,-0.04000931,29.70012055,0.14706174
'2:48.750',0.72997223,-0.87998703,-0.04000931,29.70012055,0.14706174
'2:48.875',0.72997223,-0.88998093,-0.04000931,29.70012055,0.14706174
'2:49.000',0.71997208,-0.88998093,-0.04000931,29.50007630,0.14503397
'2:49.125',0.72997223,-0.88998093,-0.04000931,29.70012055,0.14706174
'2:49.250',0.71997208,-0.88998093,-0.04000931,29.70012055,0.14706174
'2:49.375',0.72997223,-0.88998093,-0.04000931,29.70012055,0.14706174
'2:49.500',0.71997208,-0.88998093,-0.04000931,29.70012055,0.14503397
'2:49.625',0.71997208,-0.88998093,-0.04000931,29.70012055,0.14706174
'2:49.750',0.71997208,-0.88998093,-0.04000931,29.70012055,0.14706174
'2:49.875',0.72997223,-0.88998093,-0.04000931,29.70012055,0.14503397
'2:50.000',0.72997223,-0.88998093,-0.04000931,29.70012055,0.14503397
'2:50.125',0.71997208,-0.88998093,-0.04000931,29.70012055,0.14503397
'2:50.250',0.71997208,-0.88998093,-0.04000931,29.70012055,0.14706174
'2:50.375',0.71997208,-0.88998093,-0.04000931,29.70012055,0.14503397
'2:50.500',0.72997223,-0.88998093,-0.04000931,29.70012055,0.14706174
'2:50.625',0.72997223,-0.88998093,-0.04000931,29.70012055,0.14706174
'2:50.750',0.72997223,-0.88998093,-0.04000931,29.70012055,0.14503397
'2:50.875',0.71997208,-0.88998093,-0.04000931,29.70012055,0.14503397
'2:51.000',0.71997208,-0.88998093,-0.04000931,29.70012055,0.14706174
'2:51.125',0.72997223,-0.87998703,-0.04000931,29.70012055,0.14503397
'2:51.250',0.72997223,-0.88998093,-0.04000931,29.70012055,0.14503397
'2:51.375',0.72997223,-0.88998093,-0.04000931,29.70012055,0.14503397
'2:51.500',0.72997223,-0.88998093,-0.04000931,29.70012055,0.14503397
'2:51.625',0.72997223,-0.88998093,-0.04000931,29.70012055,0.14503397
'2:51.750',0.72997223,-0.88998093,-0.04000931,29.70012055,0.14706174
'2:51.875',0.72997223,-0.88998093,-0.04000931,29.70012055,0.14706174
'2:52.000',0.72997223,-0.88998093,-0.04000931,29.70012055,0.14503397
'2:52.125',0.71997208,-0.88998093,-0.04000931,29.70012055,0.14503397
'2:52.250',0.71997208,-0.88998093,-0.04000931,29.70012055,0.14503397
'2:52.375',0.72997223,-0.88998093,-0.04000931,29.70012055,0.14503397
'2:52.500',0.71997208,-0.88998093,-0.04000931,29.70012055,0.14503397
'2:52.625',0.72997223,-0.88998093,-0.04000931,29.70012055,0.14503397
'2:52.750',0.72997223,-0.88998093,-0.04000931,29.70012055,0.14503397
'2:52.875',0.71997208,-0.88998093,-0.05002091,29.70012055,0.14503397
'2:53.000',0.71997208,-0.88998093,-0.04000931,29.70012055,0.14503397
'2:53.125',0.71997208,-0.88998093,-0.04000931,29.70012055,0.14503397
'2:53.250',0.72997223,-0.88998093,-0.04000931,29.70012055,0.14503397
'2:53.375',0.72997223,-0.88998093,-0.04000931,29.70012055,0.14503397
'2:53.500',0.72997223,-0.88998093,-0.04000931,29.70012055,0.14503397
'2:53.625',0.71997208,-0.88998093,-0.04000931,29.70012055,0.14503397
'2:53.750',0.72997223,-0.88998093,-0.04000931,29.70012055,0.14503397
'2:53.875',0.72997223,-0.88998093,-0.04000931,29.70012055,0.14503397
'2:54.000',0.72997223,-0.88998093,-0.04000931,29.70012055,0.14503397
'2:54.125',0.72997223,-0.88998093,-0.04000931,29.70012055,0.14503397
'2:54.250',0.72997223,-0.88998093,-0.04000931,29.70012055,0.14503397
'2:54.375',0.72997223,-0.88998093,-0.04000931,29.70012055,0.14503397
'2:54.500',0.71997208,-0.88998093,-0.05002091,29.70012055,0.14503397
'2:54.625',0.72997223,-0.88998093,-0.04000931,29.70012055,0.14503397
'2:54.750',0.72997223,-0.88998093,-0.04000931,29.70012055,0.14503397
'2:54.875',0.72997223,-0.88998093,-0.04000931,29.70012055,0.14503397
'2:55.000',0.72997223,-0.88998093,-0.04000931,29.70012055,0.14503397
'2:55.125',0.71997208,-0.88998093,-0.04000931,29.70012055,0.14503397
'2:55.250',0.72997223,-0.88998093,-0.04000931,29.70012055,0.14503397
'2:55.375',0.71997208,-0.88998093,-0.04000931,29.70012055,0.14503397
'2:55.500',0.71997208,-0.88998093,-0.04000931,29.70012055,0.14503397
'2:55.625',0.72997223,-0.88998093,-0.04000931,29.70012055,0.14503397
'2:55.750',0.71997208,-0.88998093,-0.04000931,29.70012055,0.14503397
'2:55.875',0.71997208,-0.88998093,-0.04000931,29.70012055,0.14503397
'2:56.000',0.71997208,-0.88998093,-0.04000931,29.90002899,0.14503397
'2:56.125',0.72997223,-0.88998093,-0.04000931,29.70012055,0.14503397
'2:56.250',0.71997208,-0.88998093,-0.04000931,29.70012055,0.14503397
'2:56.375',0.71997208,-0.88998093,-0.04000931,29.70012055,0.14503397
'2:56.500',0.71997208,-0.88998093,-0.04000931,29.70012055,0.14503397
'2:56.625',0.71997208,-0.88998093,-0.04000931,29.70012055,0.14503397
'2:56.750',0.72997223,-0.88998093,-0.04000931,29.70012055,0.14503397
'2:56.875',0.72997223,-0.88998093,-0.04000931,29.70012055,0.14503397
'2:57.000',0.72997223,-0.88998093,-0.04000931,29.70012055,0.14503397
'2:57.125',0.71997208,-0.88998093,-0.04000931,29.70012055,0.14503397
'2:57.250',0.72997223,-0.88998093,-0.04000931,29.70012055,0.14503397
'2:57.375',0.72997223,-0.88998093,-0.04000931,29.70012055,0.14503397
'2:57.500',0.72997223,-0.88998093,-0.04000931,29.70012055,0.14503397
'2:57.625',0.72997223,-0.88998093,-0.04000931,29.70012055,0.14503397
'2:57.750',0.71997208,-0.88998093,-0.04000931,29.70012055,0.14503397
'2:57.875',0.72997223,-0.88998093,-0.04000931,29.70012055,0.14503397
'2:58.000',0.72997223,-0.88998093,-0.04000931,29.70012055,0.14503397
'2:58.125',0.72997223,-0.88998093,-0.04000931,29.70012055,0.14503397
'2:58.250',0.71997208,-0.88998093,-0.04000931,29.70012055,0.14503397
'2:58.375',0.71997208,-0.88998093,-0.04000931,29.70012055,0.14503397
'2:58.500',0.71997208,-0.88998093,-0.04000931,29.70012055,0.14503397
'2:58.625',0.71997208,-0.88998093,-0.04000931,29.70012055,0.14204059
'2:58.750',0.71997208,-0.88998093,-0.04000931,29.70012055,0.14204059
'2:58.875',0.71997208,-0.88998093,-0.04000931,29.70012055,0.14503397
'2:59.000',0.71997208,-0.88998093,-0.04000931,29.70012055,0.14503397
'2:59.125',0.72997223,-0.88998093,-0.04000931,29.90002899,0.14204059
'2:59.250',0.72997223,-0.88998093,-0.04000931,29.70012055,0.14503397
'2:59.375',0.71997208,-0.88998093,-0.04000931,29.70012055,0.14503397
'2:59.500',0.71997208,-0.88998093,-0.04000931,29.70012055,0.14503397
'2:59.625',0.72997223,-0.88998093,-0.04000931,29.90002899,0.14204059
'2:59.750',0.72997223,-0.88998093,-0.04000931,29.70012055,0.14204059
'2:59.875',0.71997208,-0.88998093,-0.04000931,29.70012055,0.14204059
'3:00.000',0.72997223,-0.88998093,-0.04000931,29.70012055,0.14001282
'3:00.125',0.72997223,-0.88998093,-0.04000931,29.90002899,0.14204059
'3:00.250',0.71997208,-0.88998093,-0.04000931,29.90002899,0.14204059
'3:00.375',0.72997223,-0.88998093,-0.04000931,29.70012055,0.14001282
'3:00.500',0.72997223,-0.88998093,-0.04000931,29.70012055,0.14001282
'3:00.625',0.72997223,-0.88998093,-0.04000931,29.70012055,0.14204059
'3:00.750',0.71997208,-0.88998093,-0.04000931,29.70012055,0.14204059
'3:00.875',0.71997208,-0.88998093,-0.04000931,29.70012055,0.14001282
'3:01.000',0.71997208,-0.88998093,-0.04000931,29.90002899,0.14001282
'3:01.125',0.71997208,-0.88998093,-0.04000931,29.70012055,0.14001282
'3:01.250',0.72997223,-0.88998093,-0.04000931,29.90002899,0.14001282
'3:01.375',0.72997223,-0.88998093,-0.04000931,29.70012055,0.14001282
'3:01.500',0.71997208,-0.88998093,-0.04000931,29.90002899,0.14001282
'3:01.625',0.71997208,-0.88998093,-0.04000931,29.70012055,0.14204059
'3:01.750',0.71997208,-0.88998093,-0.04000931,29.70012055,0.14001282
'3:01.875',0.71997208,-0.88998093,-0.04000931,29.70012055,0.14001282
'3:02.000',0.71997208,-0.88998093,-0.04000931,29.70012055,0.14001282
'3:02.125',0.71997208,-0.88998093,-0.04000931,29.70012055,0.14001282
'3:02.250',0.72997223,-0.88998093,-0.04000931,29.90002899,0.14001282
'3:02.375',0.71997208,-0.88998093,-0.04000931,29.90002899,0.14001282
'3:02.500',0.72997223,-0.88998093,-0.04000931,29.90002899,0.14001282
'3:02.625',0.72997223,-0.88998093,-0.04000931,29.70012055,0.14001282
'3:02.750',0.71997208,-0.88998093,-0.04000931,29.90002899,0.14001282
'3:02.875',0.72997223,-0.88998093,-0.04000931,29.90002899,0.14001282
'3:03.000',0.72997223,-0.88998093,-0.04000931,29.90002899,0.14001282
'3:03.125',0.71997208,-0.88998093,-0.04000931,29.90002899,0.14001282
'3:03.250',0.71997208,-0.88998093,-0.04000931,29.70012055,0.14001282
'3:03.375',0.72997223,-0.88998093,-0.04000931,29.90002899,0.14001282
'3:03.500',0.71997208,-0.88998093,-0.04000931,29.90002899,0.14001282
'3:03.625',0.71997208,-0.88998093,-0.04000931,29.90002899,0.14001282
'3:03.750',0.71997208,-0.88998093,-0.04000931,29.90002899,0.14001282
'3:03.875',0.72997223,-0.88998093,-0.04000931,29.90002899,0.14001282
'3:04.000',0.71997208,-0.88998093,-0.04000931,29.70012055,0.14001282
'3:04.125',0.71997208,-0.88998093,-0.04000931,29.90002899,0.14001282
'3:04.250',0.71997208,-0.88998093,-0.04000931,29.90002899,0.14001282
'3:04.375',0.70997192,-0.88998093,-0.04000931,29.90002899,0.14001282
'3:04.500',0.71997208,-0.88998093,-0.04000931,29.90002899,0.14001282
'3:04.625',0.71997208,-0.88998093,-0.04000931,29.90002899,0.14001282
'3:04.750',0.72997223,-0.88998093,-0.04000931,29.90002899,0.14001282
'3:04.875',0.71997208,-0.88998093,-0.04000931,29.90002899,0.14001282
'3:05.000',0.71997208,-0.88998093,-0.04000931,29.90002899,0.14001282
'3:05.125',0.72997223,-0.88998093,-0.04000931,29.90002899,0.14001282
'3:05.250',0.71997208,-0.88998093,-0.04000931,29.90002899,0.14001282
'3:05.375',0.71997208,-0.88998093,-0.04000931,29.90002899,0.13808161
'3:05.500',0.72997223,-0.88998093,-0.04000931,29.90002899,0.14001282
'3:05.625',0.72997223,-0.88998093,-0.04000931,29.90002899,0.14001282
'3:05.750',0.71997208,-0.88998093,-0.04000931,29.90002899,0.14001282
'3:05.875',0.72997223,-0.88998093,-0.04000931,29.90002899,0.13508823
'3:06.000',0.71997208,-0.88998093,-0.04000931,29.90002899,0.13808161
'3:06.125',0.71997208,-0.88998093,-0.04000931,29.90002899,0.14001282
'3:06.250',0.71997208,-0.88998093,-0.04000931,29.90002899,0.13508823
'3:06.375',0.71997208,-0.89997482,-0.04000931,29.90002899,0.14001282
'3:06.500',0.71997208,-0.88998093,-0.04000931,29.90002899,0.13808161
'3:06.625',0.71997208,-0.88998093,-0.04000931,29.90002899,0.13808161
'3:06.750',0.71997208,-0.89997482,-0.04000931,29.90002899,0.13508823
'3:06.875',0.70997192,-0.88998093,-0.04000931,29.90002899,0.13508823
'3:07.000',0.70997192,-0.89997482,-0.04000931,29.90002899,0.13701944
'3:07.125',0.71997208,-0.88998093,-0.04000931,29.90002899,0.13808161
'3:07.250',0.71997208,-0.88998093,-0.04000931,29.90002899,0.13508823
'3:07.375',0.71997208,-0.88998093,-0.04000931,29.90002899,0.13808161
'3:07.500',0.72997223,-0.88998093,-0.04000931,29.90002899,0.13508823
'3:07.625',0.71997208,-0.88998093,-0.04000931,29.90002899,0.13808161
'3:07.750',0.71997208,-0.88998093,-0.04000931,29.90002899,0.13508823
'3:07.875',0.71997208,-0.88998093,-0.04000931,29.90002899,0.13508823
'3:08.000',0.71997208,-0.88998093,-0.04000931,29.90002899,0.13808161
'3:08.125',0.71997208,-0.88998093,-0.04000931,29.90002899,0.13508823
'3:08.250',0.72997223,-0.88998093,-0.04000931,29.90002899,0.13508823
'3:08.375',0.72997223,-0.88998093,-0.04000931,29.90002899,0.13508823
'3:08.500',0.72997223,-0.88998093,-0.04000931,29.90002899,0.13508823
'3:08.625',0.71997208,-0.88998093,-0.04000931,29.90002899,0.13808161
'3:08.750',0.72997223,-0.89997482,-0.04000931,29.90002899,0.13508823
'3:08.875',0.71997208,-0.88998093,-0.04000931,29.90002899,0.13508823
'3:09.000',0.71997208,-0.88998093,-0.04000931,29.90002899,0.13508823
'3:09.125',0.71997208,-0.88998093,-0.04000931,29.90002899,0.13508823
'3:09.250',0.71997208,-0.88998093,-0.04000931,29.90002899,0.13508823
'3:09.375',0.71997208,-0.88998093,-0.04000931,29.90002899,0.13508823
'3:09.500',0.71997208,-0.88998093,-0.04000931,29.90002899,0.13508823
'3:09.625',0.71997208,-0.88998093,-0.04000931,29.90002899,0.13508823
'3:09.750',0.71997208,-0.88998093,-0.04000931,29.90002899,0.13508823
'3:09.875',0.71997208,-0.88998093,-0.04000931,29.90002899,0.13508823
'3:10.000',0.71997208,-0.88998093,-0.04000931,29.90002899,0.13508823
'3:10.125',0.71997208,-0.88998093,-0.04000931,29.90002899,0.13508823
'3:10.250',0.71997208,-0.88998093,-0.04000931,29.90002899,0.13508823
'3:10.375',0.72997223,-0.88998093,-0.04000931,29.90002899,0.13508823
'3:10.500',0.71997208,-0.88998093,-0.04000931,29.90002899,0.13508823
'3:10.625',0.72997223,-0.88998093,-0.04000931,29.90002899,0.13508823
'3:10.750',0.71997208,-0.88998093,-0.04000931,29.90002899,0.13508823
'3:10.875',0.71997208,-0.88998093,-0.04000931,29.90002899,0.13508823
'3:11.000',0.71997208,-0.88998093,-0.04000931,29.90002899,0.13508823
'3:11.125',0.70997192,-0.88998093,-0.04000931,29.90002899,0.13508823
'3:11.250',0.71997208,-0.88998093,-0.04000931,29.90002899,0.13508823
'3:11.375',0.71997208,-0.88998093,-0.04000931,29.90002899,0.13508823
'3:11.500',0.71997208,-0.88998093,-0.04000931,29.90002899,0.13508823
'3:11.625',0.71997208,-0.89997482,-0.04000931,29.90002899,0.13508823
'3:11.750',0.71997208,-0.89997482,-0.04000931,29.90002899,0.13508823
'3:11.875',0.71997208,-0.88998093,-0.04000931,29.90002899,0.13508823
'3:12.000',0.71997208,-0.88998093,-0.04000931,29.90002899,0.13508823
'3:12.125',0.71997208,-0.88998093,-0.04000931,29.90002899,0.13306046
'3:12.250',0.72997223,-0.88998093,-0.04000931,29.90002899,0.13508823
'3:12.375',0.71997208,-0.88998093,-0.04000931,29.90002899,0.13306046
'3:12.500',0.71997208,-0.88998093,-0.04000931,29.90002899,0.13306046
'3:12.625',0.72997223,-0.88998093,-0.04000931,29.90002899,0.13508823
'3:12.750',0.71997208,-0.88998093,-0.04000931,29.90002899,0.13306046
'3:12.875',0.71997208,-0.88998093,-0.04000931,29.90002899,0.13306046
'3:13.000',0.71997208,-0.88998093,-0.04000931,29.90002899,0.13508823
'3:13.125',0.71997208,-0.88998093,-0.04000931,29.90002899,0.13306046
'3:13.250',0.72997223,-0.88998093,-0.04000931,29.90002899,0.13508823
'3:13.375',0.71997208,-0.88998093,-0.04000931,29.90002899,0.13508823
'3:13.500',0.71997208,-0.88998093,-0.04000931,29.90002899,0.13306046
'3:13.625',0.71997208,-0.88998093,-0.04000931,29.90002899,0.13508823
'3:13.750',0.71997208,-0.88998093,-0.04000931,29.90002899,0.13508823
'3:13.875',0.71997208,-0.88998093,-0.04000931,29.90002899,0.13508823
'3:14.000',0.71997208,-0.88998093,-0.04000931,29.90002899,0.13306046
'3:14.125',0.71997208,-0.88998093,-0.04000931,29.90002899,0.13508823
'3:14.250',0.71997208,-0.88998093,-0.04000931,29.90002899,0.13508823
'3:14.375',0.71997208,-0.88998093,-0.04000931,29.90002899,0.13508823
'3:14.500',0.71997208,-0.88998093,-0.04000931,29.90002899,0.13508823
'3:14.625',0.70997192,-0.89997482,-0.04000931,29.90002899,0.13508823
'3:14.750',0.71997208,-0.89997482,-0.04000931,29.90002899,0.13508823
'3:14.875',0.71997208,-0.88998093,-0.04000931,29.90002899,0.13508823
'3:15.000',0.71997208,-0.88998093,-0.04000931,29.90002899,0.13808161
'3:15.125',0.71997208,-0.88998093,-0.04000931,29.90002899,0.13508823
'3:15.250',0.71997208,-0.88998093,-0.04000931,29.90002899,0.13508823
'3:15.375',0.71997208,-0.88998093,-0.04000931,29.90002899,0.13808161
'3:15.500',0.71997208,-0.88998093,-0.04000931,29.90002899,0.13508823
'3:15.625',0.71997208,-0.88998093,-0.04000931,29.90002899,0.13508823
'3:15.750',0.71997208,-0.88998093,-0.04000931,29.90002899,0.13508823
'3:15.875',0.72997223,-0.88998093,-0.04000931,29.90002899,0.13808161
'3:16.000',0.71997208,-0.88998093,-0.04000931,29.90002899,0.13508823
'3:16.125',0.71997208,-0.88998093,-0.04000931,30.10007324,0.13808161
'3:16.250',0.71997208,-0.88998093,-0.03003479,29.90002899,0.13808161
'3:16.375',0.71997208,-0.88998093,-0.04000931,29.90002899,0.13808161
'3:16.500',0.70997192,-0.88998093,-0.04000931,29.90002899,0.13808161
'3:16.625',0.71997208,-0.88998093,-0.04000931,29.90002899,0.14001282
'3:16.750',0.71997208,-0.88998093,-0.04000931,29.90002899,0.14001282
'3:16.875',0.71997208,-0.88998093,-0.04000931,30.10007324,0.14001282
'3:17.000',0.71997208,-0.88998093,-0.04000931,30.10007324,0.14001282
'3:17.125',0.70997192,-0.88998093,-0.04000931,30.10007324,0.14001282
'3:17.250',0.71997208,-0.88998093,-0.04000931,29.90002899,0.14001282
'3:17.375',0.71997208,-0.88998093,-0.04000931,29.90002899,0.14001282
'3:17.500',0.71997208,-0.88998093,-0.04000931,29.90002899,0.14204059
'3:17.625',0.71997208,-0.88998093,-0.04000931,30.10007324,0.14503397
'3:17.750',0.71997208,-0.88998093,-0.04000931,30.10007324,0.14503397
'3:17.875',0.71997208,-0.88998093,-0.04000931,30.10007324,0.14503397
'3:18.000',0.71997208,-0.88998093,-0.04000931,29.90002899,0.14204059
'3:18.125',0.71997208,-0.88998093,-0.04000931,30.10007324,0.14503397
'3:18.250',0.72997223,-0.88998093,-0.04000931,30.10007324,0.14204059
'3:18.375',0.71997208,-0.88998093,-0.04000931,29.90002899,0.14503397
'3:18.500',0.71997208,-0.88998093,-0.04000931,30.10007324,0.14204059
'3:18.625',0.71997208,-0.88998093,-0.04000931,30.10007324,0.14503397
'3:18.750',0.71997208,-0.88998093,-0.04000931,30.10007324,0.14503397
'3:18.875',0.71997208,-0.88998093,-0.04000931,29.90002899,0.14001282
'3:19.000',0.71997208,-0.88998093,-0.04000931,30.10007324,0.14001282
'3:19.125',0.71997208,-0.88998093,-0.04000931,30.10007324,0.14001282
'3:19.250',0.71997208,-0.88998093,-0.04000931,30.10007324,0.14001282
'3:19.375',0.71997208,-0.88998093,-0.04000931,29.90002899,0.14001282
'3:19.500',0.71997208,-0.88998093,-0.04000931,30.10007324,0.14001282
'3:19.625',0.71997208,-0.88998093,-0.04000931,30.10007324,0.14001282
'3:19.750',0.71997208,-0.88998093,-0.04000931,29.90002899,0.14001282
'3:19.875',0.71997208,-0.88998093,-0.04000931,30.10007324,0.14001282
'3:20.000',0.71997208,-0.88998093,-0.04000931,30.10007324,0.14001282
'3:20.125',0.71997208,-0.88998093,-0.04000931,30.10007324,0.14001282
'3:20.250',0.71997208,-0.88998093,-0.04000931,30.10007324,0.14001282
'3:20.375',0.71997208,-0.88998093,-0.04000931,29.90002899,0.14001282
'3:20.500',0.71997208,-0.88998093,-0.04000931,30.10007324,0.14001282
'3:20.625',0.72997223,-0.88998093,-0.04000931,30.10007324,0.14001282
'3:20.750',0.72997223,-0.88998093,-0.04000931,30.10007324,0.14001282
'3:20.875',0.71997208,-0.88998093,-0.04000931,30.10007324,0.14001282
'3:21.000',0.71997208,-0.88998093,-0.04000931,29.90002899,0.14001282
'3:21.125',0.71997208,-0.88998093,-0.04000931,30.10007324,0.14001282
'3:21.250',0.71997208,-0.88998093,-0.04000931,30.10007324,0.14001282
'3:21.375',0.72997223,-0.88998093,-0.04000931,30.10007324,0.14001282
'3:21.500',0.71997208,-0.88998093,-0.04000931,30.10007324,0.14001282
'3:21.625',0.71997208,-0.88998093,-0.04000931,30.10007324,0.13808161
'3:21.750',0.71997208,-0.88998093,-0.04000931,30.10007324,0.14001282
'3:21.875',0.71997208,-0.88998093,-0.04000931,30.10007324,0.14001282
'3:22.000',0.71997208,-0.88998093,-0.04000931,30.10007324,0.13808161
'3:22.125',0.71997208,-0.88998093,-0.04000931,30.10007324,0.13808161
'3:22.250',0.71997208,-0.88998093,-0.04000931,30.10007324,0.13508823
'3:22.375',0.71997208,-0.88998093,-0.04000931,30.10007324,0.13808161
'3:22.500',0.71997208,-0.88998093,-0.04000931,30.10007324,0.13808161
'3:22.625',0.71997208,-0.88998093,-0.04000931,30.10007324,0.13508823
'3:22.750',0.71997208,-0.88998093,-0.04000931,30.10007324,0.13808161
'3:22.875',0.71997208,-0.88998093,-0.04000931,30.10007324,0.13808161
'3:23.000',0.71997208,-0.88998093,-0.04000931,30.10007324,0.13508823
'3:23.125',0.72997223,-0.88998093,-0.04000931,30.10007324,0.13508823
'3:23.250',0.71997208,-0.88998093,-0.04000931,30.10007324,0.13808161
'3:23.375',0.71997208,-0.88998093,-0.04000931,30.10007324,0.13508823
'3:23.500',0.71997208,-0.88998093,-0.04000931,30.10007324,0.13508823
'3:23.625',0.72997223,-0.88998093,-0.04000931,30.10007324,0.13508823
'3:23.750',0.72997223,-0.88998093,-0.04000931,30.10007324,0.13508823
'3:23.875',0.72997223,-0.88998093,-0.04000931,30.10007324,0.13508823
'3:24.000',0.71997208,-0.88998093,-0.04000931,30.10007324,0.13508823
'3:24.125',0.71997208,-0.88998093,-0.04000931,30.10007324,0.13508823
'3:24.250',0.71997208,-0.88998093,-0.04000931,30.10007324,0.13508823
'3:24.375',0.71997208,-0.88998093,-0.04000931,30.10007324,0.13508823
'3:24.500',0.72997223,-0.88998093,-0.04000931,30.10007324,0.13508823
'3:24.625',0.71997208,-0.88998093,-0.04000931,30.10007324,0.13508823
'3:24.750',0.71997208,-0.88998093,-0.04000931,30.10007324,0.13508823
'3:24.875',0.70997192,-0.88998093,-0.04000931,30.10007324,0.13508823
'3:25.000',0.71997208,-0.88998093,-0.04000931,30.10007324,0.13508823
'3:25.125',0.71997208,-0.88998093,-0.04000931,30.10007324,0.13508823
'3:25.250',0.71997208,-0.88998093,-0.04000931,30.10007324,0.13508823
'3:25.375',0.71997208,-0.88998093,-0.04000931,30.10007324,0.13508823
'3:25.500',0.71997208,-0.88998093,-0.04000931,30.10007324,0.13508823
'3:25.625',0.71997208,-0.89997482,-0.04000931,30.10007324,0.13808161
'3:25.750',0.71997208,-0.88998093,-0.04000931,30.10007324,0.13508823
'3:25.875',0.71997208,-0.88998093,-0.04000931,30.10007324,0.13808161
'3:26.000',0.71997208,-0.88998093,-0.04000931,30.10007324,0.14001282
'3:26.125',0.71997208,-0.88998093,-0.04000931,30.10007324,0.14001282
'3:26.250',0.71997208,-0.88998093,-0.04000931,30.10007324,0.13701944
'3:26.375',0.72997223,-0.88998093,-0.04000931,30.10007324,0.14001282
'3:26.500',0.71997208,-0.88998093,-0.04000931,30.10007324,0.13808161
'3:26.625',0.72997223,-0.88998093,-0.04000931,30.10007324,0.14001282
'3:26.750',0.71997208,-0.88998093,-0.04000931,30.10007324,0.14001282
'3:26.875',0.72997223,-0.88998093,-0.04000931,30.10007324,0.13808161
'3:27.000',0.71997208,-0.88998093,-0.04000931,30.10007324,0.14001282
'3:27.125',0.71997208,-0.88998093,-0.04000931,30.10007324,0.13808161
'3:27.250',0.71997208,-0.88998093,-0.04000931,30.10007324,0.13508823
'3:27.375',0.70997192,-0.88998093,-0.03003479,30.10007324,0.13808161
'3:27.500',0.71997208,-0.88998093,-0.04000931,30.10007324,0.14001282
'3:27.625',0.71997208,-0.88998093,-0.04000931,30.10007324,0.14001282
'3:27.750',0.71997208,-0.88998093,-0.04000931,30.10007324,0.13808161
'3:27.875',0.71997208,-0.88998093,-0.04000931,30.10007324,0.13808161
'3:28.000',0.71997208,-0.88998093,-0.04000931,30.10007324,0.14001282
'3:28.125',0.71997208,-0.88998093,-0.04000931,30.10007324,0.13808161
'3:28.250',0.71997208,-0.88998093,-0.04000931,30.10007324,0.14001282
'3:28.375',0.71997208,-0.88998093,-0.04000931,30.10007324,0.14001282
'3:28.500',0.71997208,-0.88998093,-0.04000931,30.10007324,0.13808161
'3:28.625',0.70997192,-0.89997482,-0.04000931,30.10007324,0.13701944
'3:28.750',0.71997208,-0.88998093,-0.04000931,30.10007324,0.14001282
'3:28.875',0.71997208,-0.88998093,-0.04000931,30.10007324,0.13808161
'3:29.000',0.71997208,-0.88998093,-0.04000931,30.10007324,0.13808161
'3:29.125',0.71997208,-0.88998093,-0.04000931,30.10007324,0.13808161
'3:29.250',0.71997208,-0.88998093,-0.04000931,30.10007324,0.13808161
'3:29.375',0.71997208,-0.88998093,-0.04000931,30.10007324,0.13808161
'3:29.500',0.71997208,-0.87998703,-0.04000931,30.10007324,0.13808161
'3:29.625',0.71997208,-0.88998093,-0.04000931,30.10007324,0.13808161
'3:29.750',0.71997208,-0.88998093,-0.04000931,30.10007324,0.13808161
'3:29.875',0.71997208,-0.88998093,-0.04000931,30.10007324,0.13808161
'3:30.000',0.71997208,-0.88998093,-0.04000931,30.10007324,0.13508823
'3:30.125',0.71997208,-0.88998093,-0.04000931,30.10007324,0.13508823
'3:30.250',0.71997208,-0.88998093,-0.04000931,30.10007324,0.13508823
'3:30.375',0.71997208,-0.88998093,-0.04000931,30.10007324,0.13508823
'3:30.500',0.70997192,-0.88998093,-0.04000931,30.10007324,0.13508823
'3:30.625',0.70997192,-0.88998093,-0.04000931,30.10007324,0.13508823
'3:30.750',0.71997208,-0.88998093,-0.04000931,30.10007324,0.13508823
'3:30.875',0.70997192,-0.88998093,-0.04000931,30.10007324,0.13808161
'3:31.000',0.70997192,-0.88998093,-0.04000931,30.10007324,0.13508823
'3:31.125',0.70997192,-0.88998093,-0.04000931,30.10007324,0.13508823
'3:31.250',0.70997192,-0.88998093,-0.04000931,30.10007324,0.13508823
'3:31.375',0.71997208,-0.88998093,-0.04000931,30.10007324,0.13508823
'3:31.500',0.71997208,-0.88998093,-0.04000931,30.10007324,0.13508823
'3:31.625',0.71997208,-0.88998093,-0.04000931,30.10007324,0.13508823
'3:31.750',0.70997192,-0.88998093,-0.04000931,30.10007324,0.13508823
'3:31.875',0.71997208,-0.88998093,-0.04000931,30.10007324,0.13808161
'3:32.000',0.72997223,-0.88998093,-0.04000931,30.10007324,0.13508823
'3:32.125',0.72997223,-0.88998093,-0.04000931,30.10007324,0.13508823
'3:32.250',0.72997223,-0.88998093,-0.04000931,30.10007324,0.13508823
'3:32.375',0.71997208,-0.88998093,-0.04000931,30.10007324,0.13508823
'3:32.500',0.72997223,-0.88998093,-0.04000931,30.10007324,0.13508823
'3:32.625',0.72997223,-0.88998093,-0.04000931,30.10007324,0.13508823
'3:32.750',0.72997223,-0.88998093,-0.04000931,30.10007324,0.13808161
'3:32.875',0.71997208,-0.88998093,-0.04000931,30.10007324,0.13508823
'3:33.000',0.72997223,-0.88998093,-0.04000931,30.10007324,0.13508823
'3:33.125',0.71997208,-0.88998093,-0.04000931,30.10007324,0.13508823
'3:33.250',0.71997208,-0.88998093,-0.04000931,30.10007324,0.13508823
'3:33.375',0.71997208,-0.88998093,-0.04000931,30.10007324,0.13508823
'3:33.500',0.70997192,-0.88998093,-0.04000931,30.10007324,0.13508823
'3:33.625',0.70997192,-0.88998093,-0.04000931,30.10007324,0.13508823
'3:33.750',0.71997208,-0.88998093,-0.04000931,30.10007324,0.13508823
'3:33.875',0.71997208,-0.88998093,-0.04000931,30.10007324,0.13508823
'3:34.000',0.71997208,-0.88998093,-0.04000931,30.10007324,0.13508823
'3:34.125',0.71997208,-0.88998093,-0.04000931,30.10007324,0.13508823
'3:34.250',0.70997192,-0.88998093,-0.04000931,30.10007324,0.13508823
'3:34.375',0.70997192,-0.88998093,-0.04000931,30.10007324,0.13306046
'3:34.500',0.71997208,-0.88998093,-0.04000931,30.10007324,0.13508823
'3:34.625',0.71997208,-0.88998093,-0.04000931,30.39993591,0.13508823
'3:34.750',0.71997208,-0.89997482,-0.04000931,30.10007324,0.13508823
'3:34.875',0.70997192,-0.88998093,-0.04000931,30.10007324,0.13508823
'3:35.000',0.71997208,-0.88998093,-0.04000931,30.10007324,0.13508823
'3:35.125',0.71997208,-0.88998093,-0.04000931,30.10007324,0.13508823
'3:35.250',0.70997192,-0.88998093,-0.04000931,30.10007324,0.13508823
'3:35.375',0.70997192,-0.88998093,-0.04000931,30.10007324,0.13508823
'3:35.500',0.70997192,-0.88998093,-0.04000931,30.10007324,0.13508823
'3:35.625',0.70997192,-0.89997482,-0.04000931,30.10007324,0.13508823
'3:35.750',0.71997208,-0.88998093,-0.04000931,30.10007324,0.13508823
'3:35.875',0.71997208,-0.88998093,-0.04000931,30.10007324,0.13306046
'3:36.000',0.70997192,-0.88998093,-0.04000931,30.10007324,0.13508823
'3:36.125',0.70997192,-0.88998093,-0.04000931,30.10007324,0.13508823
'3:36.250',0.70997192,-0.88998093,-0.04000931,30.39993591,0.13508823
'3:36.375',0.71997208,-0.88998093,-0.04000931,30.10007324,0.13508823
'3:36.500',0.71997208,-0.88998093,-0.04000931,30.39993591,0.13508823
'3:36.625',0.70997192,-0.88998093,-0.04000931,30.10007324,0.13306046
'3:36.750',0.70997192,-0.89997482,-0.04000931,30.10007324,0.13306046
'3:36.875',0.71997208,-0.88998093,-0.04000931,30.10007324,0.13306046
'3:37.000',0.71997208,-0.89997482,-0.04000931,30.39993591,0.13508823
'3:37.125',0.70997192,-0.88998093,-0.04000931,30.39993591,0.13508823
