Elapsed time,ax,ay,az,temp,EDA
'0:00.000',0.44996796,-1.00996857,-0.04000366,27.00006409,3.25101413
'0:00.125',0.43999268,-1.01998718,-0.04000366,27.00006409,3.25605237
'0:00.250',0.44996796,-1.01998718,-0.05000458,27.00006409,3.25605237
'0:00.375',0.44996796,-1.00996857,-0.04000366,27.00006409,3.25605237
'0:00.500',0.43999268,-1.00996857,-0.05000458,27.00006409,3.25605237
'0:00.625',0.44996796,-1.00996857,-0.06000549,27.00006409,3.25605237
'0:00.750',0.44996796,-0.99998535,-0.02000183,27.00006409,3.25605237
'0:00.875',0.44996796,-0.99998535,-0.05000458,27.20000763,3.25101413
'0:01.000',0.44996796,-1.00996857,-0.04000366,27.20000763,3.25605237
'0:01.125',0.45997925,-1.00996857,-0.04000366,27.20000763,3.25605237
'0:01.250',0.45997925,-1.00996857,-0.04000366,27.20000763,3.27908432
'0:01.375',0.44996796,-1.0299704,-0.04000366,27.00006409,3.25605237
'0:01.500',0.4300174,-1.01998718,-0.04000366,27.00006409,3.25605237
'0:01.625',0.41003082,-1.01998718,-0.04000366,27.20000763,3.27908432
'0:01.750',0.31002594,-0.99998535,0,27.20000763,3.25605237
'0:01.875',0.40001953,-1.00996857,-0.02000183,27.20000763,3.25605237
'0:02.000',0.41003082,-1.01998718,-0.03000275,27.00006409,3.25605237
'0:02.125',0.4999884,-1.11999634,-0.11001007,27.20000763,3.25605237
'0:02.250',0.39000824,-1.07999268,-0.11001007,27.00006409,3.25605237
'0:02.375',0.46999054,-1.00996857,0.08996399,27.20000763,3.25605237
'0:02.500',0.38003296,-0.87997436,0.19997406,27.20000763,3.27908432
'0:02.625',-0.01998657,-0.92999664,0.19997406,27.20000763,3.27908432
'0:02.750',0.10000488,-1.05999084,0.21997589,27.00006409,3.27908432
'0:02.875',-0.06997101,-1.04997223,0.26998047,27.20000763,3.27908432
'0:03.000',-0.14998932,-0.94999847,0.19997406,27.20000763,3.27908432
'0:03.125',-0.1599646,-0.9699649,0.20997497,27.20000763,3.27908432
'0:03.250',-0.27999207,-0.92999664,0.32998596,27.20000763,3.27908432
'0:03.375',-0.20998505,-0.74998016,0.12996765,27.20000763,3.27908432
'0:03.500',-0.23998291,-1.42997162,-0.35998871,27.20000763,3.27908432
'0:03.625',0.12002747,-0.99998535,0,27.20000763,3.3080542
'0:03.750',0.19003449,-1.11999634,0.07996307,27.20000763,3.31300247
'0:03.875',0.22003235,-1.09999451,-0.03000275,27.20000763,3.33603442
'0:04.000',0.16000061,-1.01998718,0.03995941,27.20000763,3.33603442
'0:04.125',0.21002106,-1.03998901,0.02995849,27.20000763,3.33603442
'0:04.250',0.20000977,-1.03998901,0.01995758,27.20000763,3.33603442
'0:04.375',0.21002106,-1.00996857,0,27.20000763,3.34206232
'0:04.500',0.27001679,-1.04997223,0,27.20000763,3.33603442
'0:04.625',0.28002808,-1.03998901,0.00995666,27.20000763,3.33603442
'0:04.750',0.30001465,-1.0299704,0.00995666,27.20000763,3.33603442
'0:04.875',0.22003235,-1.06997406,0,27.20000763,3.33603442
'0:05.000',0.39000824,-0.94999847,0.03995941,27.20000763,3.33603442
'0:05.125',0.31002594,-1.0299704,0.02995849,27.20000763,3.34206232
'0:05.250',0.33001251,-1.03998901,0,27.20000763,3.33603442
'0:05.375',0.3500351,-0.99998535,0,27.20000763,3.33603442
'0:05.500',0.47996582,-1.05999084,0,27.20000763,3.33603442
'0:05.625',0.44996796,-0.99998535,0.01995758,27.20000763,3.33603442
'0:05.750',0.46999054,-1.00996857,0.00995666,27.20000763,3.33603442
'0:05.875',0.44996796,-1.00996857,0,27.20000763,3.33603442
'0:06.000',0.44996796,-1.00996857,0,27.20000763,3.33603442
'0:06.125',0.45997925,-1.00996857,0,27.20000763,3.34206232
'0:06.250',0.45997925,-0.99998535,0,27.20000763,3.34206232
'0:06.375',0.46999054,-1.00996857,0.00995666,27.20000763,3.33603442
'0:06.500',0.45997925,-0.99998535,0,27.20000763,3.34206232
'0:06.625',0.45997925,-0.99998535,0,27.20000763,3.34206232
'0:06.750',0.45997925,-0.99998535,-0.01000092,27.20000763,3.34206232
'0:06.875',0.45997925,-0.99998535,0,27.20000763,3.34206232
'0:07.000',0.47996582,-0.99998535,0,27.20000763,3.34206232
'0:07.125',0.47996582,-0.99998535,0,27.40005646,3.34206232
'0:07.250',0.47996582,-0.99998535,0,27.20000763,3.34206232
'0:07.375',0.46999054,-0.99998535,0,27.20000763,3.34206232
'0:07.500',0.46999054,-0.99998535,0,27.40005646,3.34206232
'0:07.625',0.48997711,-0.99998535,0,27.20000763,3.34206232
'0:07.750',0.48997711,-0.99998535,0,27.20000763,3.34206232
'0:07.875',0.48997711,-0.99998535,0,27.20000763,3.34206232
'0:08.000',0.47996582,-0.99998535,0,27.20000763,3.34206232
'0:08.125',0.48997711,-0.99998535,0,27.20000763,3.34206232
'0:08.250',0.48997711,-0.99998535,0,27.40005646,3.34206232
'0:08.375',0.48997711,-0.99998535,0,27.20000763,3.36608393
'0:08.500',0.48997711,-0.99998535,0,27.20000763,3.34206232
'0:08.625',0.47996582,-0.99998535,0,27.20000763,3.36608393
'0:08.750',0.48997711,-0.99998535,0,27.20000763,3.34206232
'0:08.875',0.48997711,-0.99998535,0,27.20000763,3.34206232
'0:09.000',0.48997711,-0.99998535,0,27.40005646,3.36608393
'0:09.125',0.48997711,-0.99998535,0,27.20000763,3.36608393
'0:09.250',0.48997711,-0.99998535,0,27.20000763,3.36608393
'0:09.375',0.48997711,-0.99998535,0,27.20000763,3.3950538
'0:09.500',0.47996582,-0.99998535,0,27.20000763,3.3950538
'0:09.625',0.48997711,-0.99998535,0,27.20000763,3.42501334
'0:09.750',0.48997711,-0.99998535,0,27.20000763,3.43005158
'0:09.875',0.4999884,-1.00996857,0,27.40005646,3.45506284
'0:10.000',0.43999268,-0.98996673,0.00995666,27.40005646,3.46100076
'0:10.125',0.4300174,-0.98996673,0.01995758,27.40005646,3.46100076
'0:10.250',0.4200061,-0.99998535,0,27.40005646,3.46100076
'0:10.375',0.45997925,-1.00996857,0,27.40005646,3.46100076
'0:10.500',0.43999268,-0.99998535,0.01995758,27.40005646,3.46100076
'0:10.625',0.44996796,-0.98996673,0,27.40005646,3.46100076
'0:10.750',0.47996582,-0.99998535,0.02995849,27.40005646,3.46100076
'0:10.875',0.45997925,-1.01998718,0.00995666,27.40005646,3.46100076
'0:11.000',0.45997925,-1.00996857,0.00995666,27.40005646,3.46100076
'0:11.125',0.45997925,-1.00996857,0,27.40005646,3.46100076
'0:11.250',0.46999054,-0.99998535,0.01995758,27.40005646,3.46100076
'0:11.375',0.45997925,-0.99998535,0.01995758,27.40005646,3.46100076
'0:11.500',0.46999054,-0.99998535,0.00995666,27.20000763,3.46100076
'0:11.625',0.45997925,-0.99998535,0.00995666,27.40005646,3.46100076
'0:11.750',0.45997925,-0.99998535,0,27.20000763,3.45506284
'0:11.875',0.48997711,-0.99998535,0,27.40005646,3.46100076
'0:12.000',0.48997711,-0.99998535,0,27.40005646,3.45506284
'0:12.125',0.48997711,-0.99998535,0,27.40005646,3.43005158
'0:12.250',0.48997711,-0.99998535,-0.01000092,27.40005646,3.45506284
'0:12.375',0.4999884,-0.99998535,-0.01000092,27.40005646,3.4500246
'0:12.500',0.48997711,-0.99998535,0.01995758,27.40005646,3.45506284
'0:12.625',0.47996582,-0.99998535,0,27.40005646,3.43005158
'0:12.750',0.50999969,-1.01998718,-0.02000183,27.40005646,3.46100076
'0:12.875',0.46999054,-0.99998535,-0.02000183,27.40005646,3.45506284
'0:13.000',0.48997711,-0.99998535,0,27.40005646,3.45506284
'0:13.125',0.4999884,-0.99998535,0,27.40005646,3.45506284
'0:13.250',0.48997711,-0.99998535,0,27.40005646,3.45506284
'0:13.375',0.48997711,-0.99998535,-0.01000092,27.40005646,3.43005158
'0:13.500',0.4999884,-0.99998535,-0.01000092,27.40005646,3.43005158
'0:13.625',0.4999884,-0.99998535,0,27.40005646,3.46100076
'0:13.750',0.51997497,-0.99998535,0,27.40005646,3.45506284
'0:13.875',0.50999969,-0.99998535,0,27.40005646,3.43607947
'0:14.000',0.50999969,-0.99998535,-0.01000092,27.40005646,3.46100076
'0:14.125',0.4999884,-0.99998535,-0.01000092,27.40005646,3.46100076
'0:14.250',0.50999969,-0.99998535,-0.01000092,27.40005646,3.46100076
'0:14.375',0.50999969,-0.99998535,0,27.40005646,3.46100076
'0:14.500',0.51997497,-0.98996673,0,27.40005646,3.46100076
'0:14.625',0.50999969,-0.99998535,0,27.40005646,3.46100076
'0:14.750',0.50999969,-0.98996673,-0.01000092,27.40005646,3.46100076
'0:14.875',0.50999969,-0.98996673,-0.01000092,27.40005646,3.46100076
'0:15.000',0.52998627,-0.99998535,0,27.40005646,3.46100076
'0:15.125',0.51997497,-0.98996673,0,27.40005646,3.46100076
'0:15.250',0.52998627,-0.98996673,-0.02000183,27.40005646,3.46100076
'0:15.375',0.51997497,-0.98996673,-0.03000275,27.40005646,3.46100076
'0:15.500',0.51997497,-0.98996673,-0.02000183,27.40005646,3.46100076
'0:15.625',0.52998627,-0.99998535,-0.01000092,27.40005646,3.46100076
'0:15.750',0.51997497,-0.98996673,0,27.40005646,3.46100076
'0:15.875',0.52998627,-0.98996673,-0.01000092,27.40005646,3.46100076
'0:16.000',0.52998627,-0.98996673,-0.02000183,27.40005646,3.46100076
'0:16.125',0.50999969,-0.98996673,-0.02000183,27.40005646,3.46100076
'0:16.250',0.52998627,-0.98996673,-0.01000092,27.40005646,3.46100076
'0:16.375',0.52998627,-0.98996673,0,27.40005646,3.46100076
'0:16.500',0.51997497,-0.98996673,-0.01000092,27.40005646,3.46100076
'0:16.625',0.51997497,-0.98996673,-0.01000092,27.40005646,3.46100076
'0:16.750',0.51997497,-0.98996673,-0.01000092,27.40005646,3.46100076
'0:16.875',0.53999756,-0.98996673,-0.01000092,27.40005646,3.46100076
'0:17.000',0.52998627,-0.98996673,0,27.40005646,3.46100076
'0:17.125',0.52998627,-0.98996673,-0.01000092,27.40005646,3.46100076
'0:17.250',0.52998627,-0.98996673,-0.01000092,27.40005646,3.46100076
'0:17.375',0.51997497,-0.98996673,-0.01000092,27.40005646,3.46100076
'0:17.500',0.52998627,-0.98996673,-0.01000092,27.40005646,3.46100076
'0:17.625',0.53999756,-0.98996673,0,27.40005646,3.48601202
'0:17.750',0.53999756,-0.98996673,0,27.40005646,3.48601202
'0:17.875',0.52998627,-0.98996673,-0.01000092,27.60010529,3.46100076
'0:18.000',0.51997497,-0.98996673,-0.01000092,27.60010529,3.46100076
'0:18.125',0.50999969,-0.98996673,0,27.40005646,3.48601202
'0:18.250',0.50999969,-1.0299704,0,27.40005646,3.48601202
'0:18.375',0.4300174,-1.16,0,27.40005646,3.46100076
'0:18.500',0.31002594,-1.00996857,0.12996765,27.40005646,3.46100076
'0:18.625',0.28002808,-0.80998566,0.10996582,27.40005646,3.46100076
'0:18.750',0.7499826,-0.8999762,0.04996033,27.40005646,3.46100076
'0:18.875',0.79996704,-0.72997833,0.14996948,27.60010529,3.46100076
'0:19.000',0.8399762,-0.77996521,0.0999649,27.40005646,3.46100076
'0:19.125',0.99997681,-0.79996704,0.06996216,27.60010529,3.46100076
'0:19.250',1.15997742,-0.63998779,0.0999649,27.60010529,3.43005158
'0:19.375',0.85999878,-0.69999329,0.08996399,27.60010529,3.43607947
'0:19.500',0.91999451,-0.69999329,0.0999649,27.60010529,3.46100076
'0:19.625',0.92996979,-0.69999329,0.10996582,27.60010529,3.46100076
'0:19.750',0.91999451,-0.69999329,0.12996765,27.60010529,3.46100076
'0:19.875',0.90998321,-0.71999512,0.10996582,27.60010529,3.45506284
'0:20.000',0.90998321,-0.71999512,0.10996582,27.60010529,3.45506284
'0:20.125',0.88999664,-0.71999512,0.10996582,27.40005646,3.45506284
'0:20.250',0.89997192,-0.71999512,0.11996673,27.40005646,3.46100076
'0:20.375',0.90998321,-0.72997833,0.11996673,27.40005646,3.45506284
'0:20.500',0.90998321,-0.72997833,0.0999649,27.60010529,3.45506284
'0:20.625',0.89997192,-0.73999695,0.10996582,27.60010529,3.45506284
'0:20.750',0.88999664,-0.72997833,0.10996582,27.60010529,3.45506284
'0:20.875',0.88999664,-0.72997833,0.10996582,27.40005646,3.45506284
'0:21.000',0.87998535,-0.72997833,0.11996673,27.60010529,3.45506284
'0:21.125',0.89997192,-0.72997833,0.10996582,27.60010529,3.43005158
'0:21.250',0.87998535,-0.72997833,0.10996582,27.60010529,3.46100076
'0:21.375',0.88999664,-0.72997833,0.11996673,27.60010529,3.43005158
'0:21.500',0.88999664,-0.72997833,0.12996765,27.60010529,3.45506284
'0:21.625',0.88999664,-0.73999695,0.11996673,27.60010529,3.45506284
'0:21.750',0.88999664,-0.72997833,0.11996673,27.60010529,3.43005158
'0:21.875',0.89997192,-0.72997833,0.11996673,27.60010529,3.45506284
'0:22.000',0.89997192,-0.73999695,0.11996673,27.60010529,3.45506284
'0:22.125',0.88999664,-0.72997833,0.12996765,27.40005646,3.45506284
'0:22.250',0.88999664,-0.73999695,0.11996673,27.60010529,3.45506284
'0:22.375',0.89997192,-0.73999695,0.11996673,27.60010529,3.45506284
'0:22.500',0.88999664,-0.73999695,0.10996582,27.60010529,3.45506284
'0:22.625',0.88999664,-0.72997833,0.12996765,27.60010529,3.43005158
'0:22.750',0.89997192,-0.73999695,0.11996673,27.60010529,3.43005158
'0:22.875',0.88999664,-0.73999695,0.10996582,27.60010529,3.45506284
'0:23.000',0.88999664,-0.73999695,0.10996582,27.60010529,3.43005158
'0:23.125',0.88999664,-0.73999695,0.10996582,27.60010529,3.43005158
'0:23.250',0.88999664,-0.73999695,0.10996582,27.60010529,3.43005158
'0:23.375',0.88999664,-0.73999695,0.10996582,27.60010529,3.43005158
'0:23.500',0.88999664,-0.73999695,0.10996582,27.60010529,3.43005158
'0:23.625',0.87998535,-0.73999695,0.10996582,27.60010529,3.43005158
'0:23.750',0.88999664,-0.73999695,0.10996582,27.60010529,3.43005158
'0:23.875',0.87998535,-0.73999695,0.10996582,27.60010529,3.43005158
'0:24.000',0.88999664,-0.74998016,0.10996582,27.60010529,3.42501334
'0:24.125',0.87998535,-0.73999695,0.10996582,27.60010529,3.43005158
'0:24.250',0.88999664,-0.74998016,0.10996582,27.60010529,3.43005158
'0:24.375',0.87998535,-0.73999695,0.10996582,27.60010529,3.42501334
'0:24.500',0.88999664,-0.74998016,0.11996673,27.60010529,3.42501334
'0:24.625',0.88999664,-0.74998016,0.11996673,27.60010529,3.42501334
'0:24.750',0.86997406,-0.74998016,0.11996673,27.60010529,3.42501334
'0:24.875',0.88999664,-0.74998016,0.11996673,27.60010529,3.42501334
'0:25.000',0.87998535,-0.74998016,0.11996673,27.60010529,3.43005158
'0:25.125',0.88999664,-0.74998016,0.11996673,27.60010529,3.42501334
'0:25.250',0.88999664,-0.73999695,0.11996673,27.60010529,3.42501334
'0:25.375',0.87998535,-0.73999695,0.12996765,27.60010529,3.42501334
'0:25.500',0.88999664,-0.74998016,0.12996765,27.60010529,3.43005158
'0:25.625',0.88999664,-0.74998016,0.12996765,27.60010529,3.43005158
'0:25.750',0.87998535,-0.73999695,0.12996765,27.60010529,3.43005158
'0:25.875',0.87998535,-0.73999695,0.12996765,27.60010529,3.43005158
'0:26.000',0.88999664,-0.74998016,0.12996765,27.60010529,3.43005158
'0:26.125',0.86997406,-0.74998016,0.12996765,27.60010529,3.43005158
'0:26.250',0.86997406,-0.74998016,0.12996765,27.60010529,3.45506284
'0:26.375',0.87998535,-0.74998016,0.11996673,27.60010529,3.43005158
'0:26.500',0.86997406,-0.74998016,0.12996765,27.60010529,3.45506284
'0:26.625',0.87998535,-0.74998016,0.11996673,27.60010529,3.46100076
'0:26.750',0.86997406,-0.74998016,0.11996673,27.60010529,3.46100076
'0:26.875',0.87998535,-0.74998016,0.11996673,27.60010529,3.46100076
'0:27.000',0.86997406,-0.74998016,0.11996673,27.60010529,3.46100076
'0:27.125',0.86997406,-0.75999878,0.12996765,27.60010529,3.46100076
'0:27.250',0.86997406,-0.74998016,0.11996673,27.60010529,3.46100076
'0:27.375',0.87998535,-0.75999878,0.11996673,27.60010529,3.46100076
'0:27.500',0.86997406,-0.74998016,0.11996673,27.60010529,3.46100076
'0:27.625',0.86997406,-0.75999878,0.12996765,27.60010529,3.46100076
'0:27.750',0.86997406,-0.74998016,0.11996673,27.60010529,3.46100076
'0:27.875',0.86997406,-0.74998016,0.12996765,27.60010529,3.46100076
'0:28.000',0.86997406,-0.74998016,0.11996673,27.60010529,3.46100076
'0:28.125',0.86997406,-0.74998016,0.12996765,27.60010529,3.46100076
'0:28.250',0.87998535,-0.75999878,0.12996765,27.60010529,3.48601202
'0:28.375',0.86997406,-0.74998016,0.12996765,27.90007324,3.48601202
'0:28.500',0.86997406,-0.75999878,0.12996765,27.90007324,3.49105026
'0:28.625',0.86997406,-0.74998016,0.12996765,27.60010529,3.51606153
'0:28.750',0.86997406,-0.75999878,0.12996765,27.60010529,3.52208942
'0:28.875',0.86997406,-0.74998016,0.11996673,27.60010529,3.52208942
'0:29.000',0.87998535,-0.75999878,0.12996765,27.60010529,3.52208942
'0:29.125',0.86997406,-0.74998016,0.12996765,27.60010529,3.54800037
'0:29.250',0.86997406,-0.75999878,0.12996765,27.90007324,3.54800037
'0:29.375',0.86997406,-0.74998016,0.12996765,27.60010529,3.54800037
'0:29.500',0.86997406,-0.74998016,0.12996765,27.90007324,3.55303861
'0:29.625',0.86997406,-0.74998016,0.12996765,27.60010529,3.55303861
'0:29.750',0.86997406,-0.75999878,0.12996765,27.60010529,3.55303861
'0:29.875',0.86997406,-0.75999878,0.12996765,27.90007324,3.55303861
'0:30.000',0.87998535,-0.74998016,0.11996673,27.90007324,3.55303861
'0:30.125',0.86997406,-0.74998016,0.11996673,27.90007324,3.55303861
'0:30.250',0.86997406,-0.74998016,0.12996765,27.90007324,3.57903952
'0:30.375',0.87998535,-0.75999878,0.12996765,27.90007324,3.57903952
'0:30.500',0.86997406,-0.75999878,0.11996673,27.90007324,3.57903952
'0:30.625',0.86997406,-0.74998016,0.12996765,27.90007324,3.57903952
'0:30.750',0.86997406,-0.75999878,0.11996673,27.90007324,3.57903952
'0:30.875',0.86997406,-0.74998016,0.11996673,27.90007324,3.57903952
'0:31.000',0.86997406,-0.74998016,0.11996673,27.90007324,3.57903952
'0:31.125',0.86997406,-0.74998016,0.12996765,27.90007324,3.57903952
'0:31.250',0.86997406,-0.75999878,0.11996673,27.90007324,3.57903952
'0:31.375',0.86997406,-0.74998016,0.12996765,27.90007324,3.58506742
'0:31.500',0.86997406,-0.74998016,0.12996765,27.90007324,3.61106833
'0:31.625',0.86997406,-0.75999878,0.12996765,27.90007324,3.61106833
'0:31.750',0.86997406,-0.74998016,0.12996765,27.90007324,3.61106833
'0:31.875',0.86997406,-0.74998016,0.12996765,27.90007324,3.58506742
'0:32.000',0.85999878,-0.74998016,0.12996765,27.90007324,3.61106833
'0:32.125',0.85999878,-0.74998016,0.12996765,27.90007324,3.58506742
'0:32.250',0.86997406,-0.75999878,0.12996765,27.90007324,3.58506742
'0:32.375',0.85999878,-0.74998016,0.12996765,27.90007324,3.57903952
'0:32.500',0.86997406,-0.74998016,0.12996765,27.90007324,3.58506742
'0:32.625',0.86997406,-0.74998016,0.12996765,27.90007324,3.58506742
'0:32.750',0.86997406,-0.74998016,0.12996765,27.90007324,3.57903952
'0:32.875',0.86997406,-0.75999878,0.12996765,27.90007324,3.57903952
'0:33.000',0.86997406,-0.75999878,0.13996857,27.90007324,3.57903952
'0:33.125',0.86997406,-0.75999878,0.12996765,27.90007324,3.57903952
'0:33.250',0.86997406,-0.74998016,0.12996765,27.90007324,3.57903952
'0:33.375',0.86997406,-0.74998016,0.12996765,27.90007324,3.57903952
'0:33.500',0.86997406,-0.75999878,0.12996765,27.90007324,3.57903952
'0:33.625',0.86997406,-0.75999878,0.12996765,27.90007324,3.57903952
'0:33.750',0.85999878,-0.75999878,0.12996765,27.90007324,3.57903952
'0:33.875',0.86997406,-0.75999878,0.12996765,27.90007324,3.57903952
'0:34.000',0.86997406,-0.75999878,0.11996673,27.90007324,3.57903952
'0:34.125',0.86997406,-0.75999878,0.12996765,27.90007324,3.57903952
'0:34.250',0.85999878,-0.75999878,0.12996765,27.90007324,3.57903952
'0:34.375',0.85999878,-0.75999878,0.12996765,27.90007324,3.55303861
'0:34.500',0.86997406,-0.75999878,0.12996765,27.90007324,3.57903952
'0:34.625',0.86997406,-0.74998016,0.11996673,27.90007324,3.57903952
'0:34.750',0.86997406,-0.75999878,0.12996765,27.90007324,3.57903952
'0:34.875',0.86997406,-0.75999878,0.12996765,27.90007324,3.57903952
'0:35.000',0.86997406,-0.75999878,0.12996765,27.90007324,3.57903952
'0:35.125',0.86997406,-0.75999878,0.12996765,27.90007324,3.58506742
'0:35.250',0.86997406,-0.75999878,0.12996765,27.90007324,3.58506742
'0:35.375',0.86997406,-0.75999878,0.12996765,27.90007324,3.61106833
'0:35.500',0.85999878,-0.74998016,0.13996857,27.90007324,3.64300717
'0:35.625',0.85999878,-0.74998016,0.12996765,27.90007324,3.64903507
'0:35.750',0.86997406,-0.74998016,0.12996765,27.90007324,3.64903507
'0:35.875',0.86997406,-0.75999878,0.12996765,27.90007324,3.64903507
'0:36.000',0.86997406,-0.74998016,0.12996765,27.90007324,3.67602564
'0:36.125',0.86997406,-0.75999878,0.12996765,27.90007324,3.7090441
'0:36.250',0.86997406,-0.74998016,0.12996765,27.90007324,3.7090441
'0:36.375',0.86997406,-0.75999878,0.12996765,27.90007324,3.7090441
'0:36.500',0.86997406,-0.74998016,0.12996765,27.90007324,3.7090441
'0:36.625',0.86997406,-0.75999878,0.12996765,27.90007324,3.7090441
'0:36.750',0.86997406,-0.75999878,0.12996765,27.90007324,3.71507199
'0:36.875',0.86997406,-0.75999878,0.12996765,27.90007324,3.7090441
'0:37.000',0.86997406,-0.75999878,0.11996673,27.90007324,3.7090441
'0:37.125',0.85999878,-0.75999878,0.11996673,27.90007324,3.7090441
'0:37.250',0.86997406,-0.74998016,0.11996673,27.90007324,3.7090441
'0:37.375',0.86997406,-0.74998016,0.11996673,27.90007324,3.7090441
'0:37.500',0.85999878,-0.75999878,0.12996765,27.90007324,3.7090441
'0:37.625',0.86997406,-0.75999878,0.12996765,27.90007324,3.70301621
'0:37.750',0.86997406,-0.75999878,0.12996765,27.90007324,3.70301621
'0:37.875',0.86997406,-0.75999878,0.12996765,28.10001679,3.67602564
'0:38.000',0.86997406,-0.75999878,0.12996765,27.90007324,3.67602564
'0:38.125',0.86997406,-0.75999878,0.12996765,27.90007324,3.67602564
'0:38.250',0.85999878,-0.74998016,0.12996765,27.90007324,3.67602564
'0:38.375',0.86997406,-0.74998016,0.12996765,27.90007324,3.67602564
'0:38.500',0.86997406,-0.75999878,0.12996765,27.90007324,3.67602564
'0:38.625',0.86997406,-0.74998016,0.13996857,27.90007324,3.67602564
'0:38.750',0.86997406,-0.75999878,0.13996857,27.90007324,3.64903507
'0:38.875',0.86997406,-0.75999878,0.12996765,27.90007324,3.64903507
'0:39.000',0.86997406,-0.75999878,0.12996765,27.90007324,3.67602564
'0:39.125',0.86997406,-0.74998016,0.12996765,27.90007324,3.64903507
'0:39.250',0.85999878,-0.74998016,0.12996765,27.90007324,3.64903507
'0:39.375',0.86997406,-0.74998016,0.13996857,28.10001679,3.67602564
'0:39.500',0.86997406,-0.74998016,0.12996765,27.90007324,3.64903507
'0:39.625',0.86997406,-0.75999878,0.12996765,28.10001679,3.64903507
'0:39.750',0.86997406,-0.74998016,0.12996765,27.90007324,3.64903507
'0:39.875',0.86997406,-0.75999878,0.11996673,27.90007324,3.64903507
'0:40.000',0.86997406,-0.74998016,0.12996765,28.10001679,3.64903507
'0:40.125',0.86997406,-0.75999878,0.11996673,27.90007324,3.64903507
'0:40.250',0.86997406,-0.74998016,0.11996673,28.10001679,3.64300717
'0:40.375',0.86997406,-0.74998016,0.12996765,28.10001679,3.64300717
'0:40.500',0.86997406,-0.75999878,0.12996765,28.10001679,3.64300717
'0:40.625',0.86997406,-0.74998016,0.11996673,28.10001679,3.64903507
'0:40.750',0.85999878,-0.75999878,0.11996673,28.10001679,3.64903507
'0:40.875',0.86997406,-0.75999878,0.11996673,28.10001679,3.64903507
'0:41.000',0.85999878,-0.75999878,0.11996673,27.90007324,3.64903507
'0:41.125',0.86997406,-0.75999878,0.11996673,28.10001679,3.64903507
'0:41.250',0.85999878,-0.75999878,0.12996765,28.10001679,3.64903507
'0:41.375',0.86997406,-0.75999878,0.11996673,27.90007324,3.64903507
'0:41.500',0.85999878,-0.75999878,0.11996673,28.10001679,3.64903507
'0:41.625',0.86997406,-0.75999878,0.12996765,28.10001679,3.64903507
'0:41.750',0.86997406,-0.74998016,0.12996765,28.10001679,3.64903507
'0:41.875',0.86997406,-0.75999878,0.12996765,27.90007324,3.64300717
'0:42.000',0.85999878,-0.75999878,0.12996765,28.10001679,3.64903507
'0:42.125',0.86997406,-0.75999878,0.12996765,28.10001679,3.64903507
'0:42.250',0.85999878,-0.75999878,0.12996765,28.10001679,3.64903507
'0:42.375',0.86997406,-0.75999878,0.12996765,28.10001679,3.64903507
'0:42.500',0.86997406,-0.75999878,0.12996765,28.10001679,3.64903507
'0:42.625',0.86997406,-0.75999878,0.12996765,28.10001679,3.64903507
'0:42.750',0.86997406,-0.75999878,0.11996673,28.10001679,3.64300717
'0:42.875',0.86997406,-0.75999878,0.12996765,28.10001679,3.64300717
'0:43.000',0.85999878,-0.75999878,0.12996765,28.10001679,3.64903507
'0:43.125',0.86997406,-0.75999878,0.12996765,28.10001679,3.64903507
'0:43.250',0.85999878,-0.75999878,0.12996765,28.10001679,3.64903507
'0:43.375',0.86997406,-0.75999878,0.12996765,28.30006561,3.64300717
'0:43.500',0.85999878,-0.75999878,0.11996673,28.30006561,3.64903507
'0:43.625',0.86997406,-0.75999878,0.11996673,28.30006561,3.64903507
'0:43.750',0.85999878,-0.75999878,0.12996765,28.30006561,3.64903507
'0:43.875',0.85999878,-0.75999878,0.12996765,28.10001679,3.64903507
'0:44.000',0.86997406,-0.75999878,0.12996765,28.10001679,3.64903507
'0:44.125',0.85999878,-0.75999878,0.12996765,28.10001679,3.64903507
'0:44.250',0.85999878,-0.75999878,0.12996765,28.10001679,3.64903507
'0:44.375',0.85999878,-0.74998016,0.13996857,28.10001679,3.67008771
'0:44.500',0.85999878,-0.75999878,0.13996857,28.10001679,3.64903507
'0:44.625',0.85999878,-0.75999878,0.13996857,28.10001679,3.64903507
'0:44.750',0.86997406,-0.75999878,0.13996857,28.10001679,3.64903507
'0:44.875',0.85999878,-0.74998016,0.12996765,28.10001679,3.67602564
'0:45.000',0.85999878,-0.74998016,0.13996857,28.10001679,3.64903507
'0:45.125',0.85999878,-0.74998016,0.12996765,28.10001679,3.67602564
'0:45.250',0.85999878,-0.75999878,0.12996765,28.10001679,3.64903507
'0:45.375',0.85999878,-0.75999878,0.12996765,28.10001679,3.64903507
'0:45.500',0.85999878,-0.75999878,0.12996765,28.10001679,3.64903507
'0:45.625',0.86997406,-0.74998016,0.12996765,28.10001679,3.67602564
'0:45.750',0.85999878,-0.75999878,0.12996765,28.10001679,3.64903507
'0:45.875',0.85999878,-0.75999878,0.12996765,28.10001679,3.64903507
'0:46.000',0.85999878,-0.75999878,0.12996765,28.10001679,3.67008771
'0:46.125',0.86997406,-0.74998016,0.12996765,28.10001679,3.64903507
'0:46.250',0.85999878,-0.75999878,0.12996765,28.10001679,3.67602564
'0:46.375',0.85999878,-0.75999878,0.12996765,28.10001679,3.64903507
'0:46.500',0.86997406,-0.75999878,0.13996857,28.30006561,3.64903507
'0:46.625',0.85999878,-0.75999878,0.12996765,28.30006561,3.64903507
'0:46.750',0.85999878,-0.75999878,0.13996857,28.10001679,3.67602564
'0:46.875',0.86997406,-0.75999878,0.13996857,28.30006561,3.64903507
'0:47.000',0.85999878,-0.75999878,0.13996857,28.10001679,3.67602564
'0:47.125',0.85999878,-0.75999878,0.13996857,28.30006561,3.64903507
'0:47.250',0.85999878,-0.75999878,0.12996765,28.30006561,3.64903507
'0:47.375',0.86997406,-0.75999878,0.14996948,28.10001679,3.67602564
'0:47.500',0.84998749,-0.75999878,0.13996857,28.30006561,3.67602564
'0:47.625',0.85999878,-0.75999878,0.13996857,28.10001679,3.67602564
'0:47.750',0.85999878,-0.74998016,0.13996857,28.30006561,3.67602564
'0:47.875',0.85999878,-0.75999878,0.13996857,28.30006561,3.67602564
'0:48.000',0.85999878,-0.75999878,0.13996857,28.30006561,3.67602564
'0:48.125',0.85999878,-0.75999878,0.13996857,28.30006561,3.67602564
'0:48.250',0.85999878,-0.75999878,0.13996857,28.10001679,3.67602564
'0:48.375',0.85999878,-0.75999878,0.13996857,28.10001679,3.64903507
'0:48.500',0.85999878,-0.75999878,0.12996765,28.10001679,3.64903507
'0:48.625',0.85999878,-0.75999878,0.13996857,28.10001679,3.67602564
'0:48.750',0.85999878,-0.75999878,0.12996765,28.30006561,3.67602564
'0:48.875',0.85999878,-0.76998199,0.12996765,28.10001679,3.67602564
'0:49.000',0.85999878,-0.75999878,0.12996765,28.30006561,3.64903507
'0:49.125',0.85999878,-0.75999878,0.12996765,28.30006561,3.67602564
'0:49.250',0.86997406,-0.75999878,0.12996765,28.10001679,3.67602564
'0:49.375',0.85999878,-0.75999878,0.12996765,28.30006561,3.64903507
'0:49.500',0.84998749,-0.75999878,0.12996765,28.30006561,3.67602564
'0:49.625',0.85999878,-0.74998016,0.12996765,28.30006561,3.67602564
'0:49.750',0.85999878,-0.75999878,0.12996765,28.30006561,3.67602564
'0:49.875',0.85999878,-0.75999878,0.12996765,28.30006561,3.67602564
'0:50.000',0.85999878,-0.76998199,0.13996857,28.30006561,3.67602564
'0:50.125',0.84998749,-0.75999878,0.12996765,28.30006561,3.67602564
'0:50.250',0.85999878,-0.75999878,0.13996857,28.30006561,3.67602564
'0:50.375',0.85999878,-0.75999878,0.13996857,28.30006561,3.67602564
'0:50.500',0.85999878,-0.75999878,0.13996857,28.30006561,3.67602564
'0:50.625',0.85999878,-0.75999878,0.13996857,28.30006561,3.67602564
'0:50.750',0.84998749,-0.75999878,0.13996857,28.30006561,3.67602564
'0:50.875',0.85999878,-0.75999878,0.13996857,28.30006561,3.67602564
'0:51.000',0.84998749,-0.75999878,0.13996857,28.30006561,3.67602564
'0:51.125',0.85999878,-0.75999878,0.13996857,28.30006561,3.67602564
'0:51.250',0.85999878,-0.75999878,0.13996857,28.30006561,3.67602564
'0:51.375',0.85999878,-0.75999878,0.14996948,28.30006561,3.67602564
'0:51.500',0.85999878,-0.75999878,0.13996857,28.30006561,3.67602564
'0:51.625',0.85999878,-0.75999878,0.13996857,28.30006561,3.67602564
'0:51.750',0.85999878,-0.75999878,0.13996857,28.30006561,3.67602564
'0:51.875',0.85999878,-0.75999878,0.13996857,28.30006561,3.67602564
'0:52.000',0.84998749,-0.75999878,0.13996857,28.30006561,3.67602564
'0:52.125',0.84998749,-0.75999878,0.13996857,28.30006561,3.67602564
'0:52.250',0.85999878,-0.75999878,0.13996857,28.30006561,3.67602564
'0:52.375',0.85999878,-0.75999878,0.12996765,28.30006561,3.67602564
'0:52.500',0.85999878,-0.75999878,0.13996857,28.30006561,3.67602564
'0:52.625',0.85999878,-0.75999878,0.13996857,28.30006561,3.67602564
'0:52.750',0.85999878,-0.75999878,0.12996765,28.30006561,3.67602564
'0:52.875',0.85999878,-0.75999878,0.13996857,28.30006561,3.67602564
'0:53.000',0.84998749,-0.75999878,0.13996857,28.30006561,3.67602564
'0:53.125',0.85999878,-0.75999878,0.13996857,28.30006561,3.67602564
'0:53.250',0.85999878,-0.75999878,0.13996857,28.30006561,3.67602564
'0:53.375',0.85999878,-0.75999878,0.13996857,28.30006561,3.67602564
'0:53.500',0.85999878,-0.75999878,0.13996857,28.30006561,3.67602564
'0:53.625',0.85999878,-0.75999878,0.13996857,28.30006561,3.67602564
'0:53.750',0.85999878,-0.75999878,0.13996857,28.30006561,3.67602564
'0:53.875',0.84998749,-0.75999878,0.13996857,28.30006561,3.67602564
'0:54.000',0.85999878,-0.75999878,0.13996857,28.30006561,3.67602564
'0:54.125',0.84998749,-0.75999878,0.13996857,28.30006561,3.67602564
'0:54.250',0.85999878,-0.75999878,0.13996857,28.30006561,3.67602564
'0:54.375',0.85999878,-0.75999878,0.13996857,28.30006561,3.67602564
'0:54.500',0.84998749,-0.75999878,0.13996857,28.30006561,3.67602564
'0:54.625',0.85999878,-0.75999878,0.13996857,28.30006561,3.67602564
'0:54.750',0.84998749,-0.75999878,0.14996948,28.30006561,3.67602564
'0:54.875',0.85999878,-0.75999878,0.13996857,28.30006561,3.67602564
'0:55.000',0.84998749,-0.75999878,0.13996857,28.30006561,3.67602564
'0:55.125',0.84998749,-0.75999878,0.13996857,28.30006561,3.67602564
'0:55.250',0.85999878,-0.75999878,0.13996857,28.30006561,3.67602564
'0:55.375',0.84998749,-0.75999878,0.13996857,28.30006561,3.67602564
'0:55.500',0.85999878,-0.75999878,0.13996857,28.30006561,3.67602564
'0:55.625',0.85999878,-0.75999878,0.12996765,28.30006561,3.67602564
'0:55.750',0.85999878,-0.75999878,0.12996765,28.30006561,3.70301621
'0:55.875',0.85999878,-0.75999878,0.12996765,28.30006561,3.68205353
'0:56.000',0.85999878,-0.75999878,0.12996765,28.30006561,3.7090441
'0:56.125',0.85999878,-0.75999878,0.13996857,28.30006561,3.7090441
'0:56.250',0.85999878,-0.74998016,0.13996857,28.30006561,3.7090441
'0:56.375',0.85999878,-0.75999878,0.13996857,28.30006561,3.71507199
'0:56.500',0.85999878,-0.75999878,0.13996857,28.30006561,3.74206256
'0:56.625',0.85999878,-0.75999878,0.13996857,28.30006561,3.74800049
'0:56.750',0.85999878,-0.75999878,0.13996857,28.30006561,3.74800049
'0:56.875',0.84998749,-0.75999878,0.13996857,28.30006561,3.74800049
'0:57.000',0.85999878,-0.75999878,0.13996857,28.30006561,3.78200861
'0:57.125',0.85999878,-0.75999878,0.13996857,28.30006561,3.78200861
'0:57.250',0.84998749,-0.75999878,0.13996857,28.30006561,3.78200861
'0:57.375',0.85999878,-0.75999878,0.13996857,28.30006561,3.78200861
'0:57.500',0.84998749,-0.75999878,0.14996948,28.30006561,3.78200861
'0:57.625',0.84998749,-0.75999878,0.13996857,28.30006561,3.78200861
'0:57.750',0.85999878,-0.75999878,0.13996857,28.30006561,3.8100788
'0:57.875',0.86997406,-0.75999878,0.13996857,28.30006561,3.8100788
'0:58.000',0.85999878,-0.75999878,0.13996857,28.30006561,3.8100788
'0:58.125',0.85999878,-0.75999878,0.14996948,28.30006561,3.78200861
'0:58.250',0.85999878,-0.75999878,0.13996857,28.30006561,3.78200861
'0:58.375',0.85999878,-0.75999878,0.13996857,28.30006561,3.78200861
'0:58.500',0.85999878,-0.75999878,0.13996857,28.30006561,3.78200861
'0:58.625',0.85999878,-0.75999878,0.13996857,28.50000916,3.78200861
'0:58.750',0.85999878,-0.75999878,0.12996765,28.30006561,3.78200861
'0:58.875',0.85999878,-0.75999878,0.13996857,28.30006561,3.78200861
'0:59.000',0.85999878,-0.75999878,0.12996765,28.30006561,3.78200861
'0:59.125',0.85999878,-0.75999878,0.12996765,28.30006561,3.78200861
'0:59.250',0.84998749,-0.75999878,0.12996765,28.30006561,3.78200861
'0:59.375',0.85999878,-0.75999878,0.12996765,28.30006561,3.78200861
'0:59.500',0.85999878,-0.75999878,0.13996857,28.50000916,3.78200861
'0:59.625',0.85999878,-0.75999878,0.13996857,28.30006561,3.77607068
'0:59.750',0.84998749,-0.75999878,0.13996857,28.50000916,3.78200861
'0:59.875',0.84998749,-0.75999878,0.13996857,28.30006561,3.78200861
'1:00.000',0.85999878,-0.75999878,0.13996857,28.30006561,3.78200861
'1:00.125',0.84998749,-0.76998199,0.13996857,28.50000916,3.78200861
'1:00.250',0.84998749,-0.75999878,0.13996857,28.30006561,3.77607068
'1:00.375',0.84998749,-0.75999878,0.14996948,28.30006561,3.74800049
'1:00.500',0.85999878,-0.75999878,0.13996857,28.50000916,3.74800049
'1:00.625',0.84998749,-0.75999878,0.13996857,28.50000916,3.74800049
'1:00.750',0.86997406,-0.75999878,0.14996948,28.50000916,3.74800049
'1:00.875',0.84998749,-0.75999878,0.14996948,28.30006561,3.77607068
'1:01.000',0.85999878,-0.75999878,0.14996948,28.50000916,3.78200861
'1:01.125',0.84998749,-0.75999878,0.14996948,28.50000916,3.78200861
'1:01.250',0.84998749,-0.75999878,0.14996948,28.50000916,3.78200861
'1:01.375',0.84998749,-0.75999878,0.13996857,28.50000916,3.78200861
'1:01.500',0.84998749,-0.75999878,0.14996948,28.50000916,3.78200861
'1:01.625',0.84998749,-0.75999878,0.13996857,28.30006561,3.78200861
'1:01.750',0.84998749,-0.75999878,0.14996948,28.50000916,3.78200861
'1:01.875',0.84998749,-0.75999878,0.13996857,28.50000916,3.78200861
'1:02.000',0.84998749,-0.75999878,0.14996948,28.50000916,3.78200861
'1:02.125',0.84998749,-0.75999878,0.13996857,28.50000916,3.8100788
'1:02.250',0.84998749,-0.75999878,0.13996857,28.50000916,3.78200861
'1:02.375',0.85999878,-0.75999878,0.13996857,28.50000916,3.8100788
'1:02.500',0.85999878,-0.75999878,0.13996857,28.50000916,3.8100788
'1:02.625',0.85999878,-0.75999878,0.13996857,28.50000916,3.8100788
'1:02.750',0.84998749,-0.75999878,0.13996857,28.50000916,3.8100788
'1:02.875',0.85999878,-0.75999878,0.13996857,28.50000916,3.8100788
'1:03.000',0.85999878,-0.75999878,0.13996857,28.50000916,3.8100788
'1:03.125',0.85999878,-0.75999878,0.13996857,28.50000916,3.8100788
'1:03.250',0.85999878,-0.75999878,0.13996857,28.50000916,3.8100788
'1:03.375',0.85999878,-0.75999878,0.13996857,28.50000916,3.8100788
'1:03.500',0.85999878,-0.75999878,0.13996857,28.50000916,3.8100788
'1:03.625',0.84998749,-0.76998199,0.13996857,28.50000916,3.8100788
'1:03.750',0.85999878,-0.75999878,0.13996857,28.50000916,3.8100788
'1:03.875',0.85999878,-0.75999878,0.13996857,28.50000916,3.8100788
'1:04.000',0.85999878,-0.75999878,0.13996857,28.50000916,3.8100788
'1:04.125',0.84998749,-0.75999878,0.13996857,28.50000916,3.8100788
'1:04.250',0.84998749,-0.75999878,0.13996857,28.50000916,3.8100788
'1:04.375',0.84998749,-0.75999878,0.13996857,28.50000916,3.8100788
'1:04.500',0.84998749,-0.75999878,0.14996948,28.50000916,3.78200861
'1:04.625',0.84998749,-0.75999878,0.13996857,28.50000916,3.8100788
'1:04.750',0.84998749,-0.75999878,0.14996948,28.50000916,3.78200861
'1:04.875',0.85999878,-0.75999878,0.14996948,28.50000916,3.78200861
'1:05.000',0.84998749,-0.75999878,0.14996948,28.50000916,3.8100788
'1:05.125',0.84998749,-0.75999878,0.13996857,28.50000916,3.78200861
'1:05.250',0.85999878,-0.75999878,0.13996857,28.50000916,3.8100788
'1:05.375',0.84998749,-0.75999878,0.13996857,28.50000916,3.78200861
'1:05.500',0.84998749,-0.75999878,0.14996948,28.50000916,3.78200861
'1:05.625',0.85999878,-0.75999878,0.14996948,28.50000916,3.78200861
'1:05.750',0.84998749,-0.75999878,0.14996948,28.50000916,3.78200861
'1:05.875',0.84998749,-0.75999878,0.14996948,28.50000916,3.78200861
'1:06.000',0.84998749,-0.75999878,0.13996857,28.50000916,3.78200861
'1:06.125',0.85999878,-0.75999878,0.14996948,28.50000916,3.78200861
'1:06.250',0.85999878,-0.75999878,0.14996948,28.50000916,3.78200861
'1:06.375',0.85999878,-0.75999878,0.14996948,28.50000916,3.78200861
'1:06.500',0.84998749,-0.75999878,0.14996948,28.50000916,3.78200861
'1:06.625',0.84998749,-0.75999878,0.13996857,28.50000916,3.78200861
'1:06.750',0.84998749,-0.75999878,0.13996857,28.50000916,3.78200861
'1:06.875',0.85999878,-0.75999878,0.13996857,28.50000916,3.78200861
'1:07.000',0.84998749,-0.75999878,0.13996857,28.50000916,3.78200861
'1:07.125',0.85999878,-0.75999878,0.13996857,28.50000916,3.78200861
'1:07.250',0.84998749,-0.75999878,0.13996857,28.50000916,3.78200861
'1:07.375',0.85999878,-0.76998199,0.12996765,28.50000916,3.78200861
'1:07.500',0.85999878,-0.76998199,0.12996765,28.50000916,3.78200861
'1:07.625',0.85999878,-0.75999878,0.11996673,28.50000916,3.78200861
'1:07.750',0.85999878,-0.75999878,0.11996673,28.50000916,3.78200861
'1:07.875',0.86997406,-0.75999878,0.11996673,28.50000916,3.78200861
'1:08.000',0.84998749,-0.75999878,0.11996673,28.50000916,3.78200861
'1:08.125',0.86997406,-0.75999878,0.11996673,28.50000916,3.78200861
'1:08.250',0.85999878,-0.76998199,0.10996582,28.50000916,3.78200861
'1:08.375',0.85999878,-0.75999878,0.10996582,28.50000916,3.78200861
'1:08.500',0.85999878,-0.75999878,0.10996582,28.70005799,3.78200861
'1:08.625',0.86997406,-0.75999878,0.0999649,28.50000916,3.78200861
'1:08.750',0.85999878,-0.75999878,0.10996582,28.50000916,3.78200861
'1:08.875',0.85999878,-0.75999878,0.0999649,28.50000916,3.78200861
'1:09.000',0.86997406,-0.76998199,0.10996582,28.50000916,3.78200861
'1:09.125',0.85999878,-0.75999878,0.11996673,28.50000916,3.78200861
'1:09.250',0.86997406,-0.75999878,0.10996582,28.50000916,3.78200861
'1:09.375',0.85999878,-0.75999878,0.11996673,28.50000916,3.78200861
'1:09.500',0.85999878,-0.75999878,0.10996582,28.50000916,3.78200861
'1:09.625',0.85999878,-0.75999878,0.10996582,28.70005799,3.78200861
'1:09.750',0.85999878,-0.75999878,0.10996582,28.50000916,3.78200861
'1:09.875',0.86997406,-0.75999878,0.10996582,28.50000916,3.78200861
'1:10.000',0.85999878,-0.75999878,0.11996673,28.50000916,3.78200861
'1:10.125',0.85999878,-0.75999878,0.10996582,28.50000916,3.78200861
'1:10.250',0.85999878,-0.76998199,0.11996673,28.50000916,3.78200861
'1:10.375',0.85999878,-0.75999878,0.11996673,28.50000916,3.78200861
'1:10.500',0.84998749,-0.76998199,0.12996765,28.50000916,3.78200861
'1:10.625',0.85999878,-0.75999878,0.12996765,28.50000916,3.78200861
'1:10.750',0.85999878,-0.76998199,0.12996765,28.50000916,3.78200861
'1:10.875',0.84998749,-0.75999878,0.12996765,28.50000916,3.78200861
'1:11.000',0.84998749,-0.76998199,0.12996765,28.50000916,3.78200861
'1:11.125',0.84998749,-0.76998199,0.12996765,28.50000916,3.78200861
'1:11.250',0.85999878,-0.76998199,0.12996765,28.50000916,3.78200861
'1:11.375',0.85999878,-0.75999878,0.12996765,28.70005799,3.78200861
'1:11.500',0.94999237,-0.80998566,0.07996307,28.50000916,3.78200861
'1:11.625',0.91999451,-0.8399707,-0.02000183,28.70005799,3.78200861
'1:11.750',0.66996429,-0.75999878,0.08996399,28.50000916,3.78200861
'1:11.875',0.47996582,-1.09999451,0.13996857,28.70005799,3.78200861
'1:12.000',0.47996582,-0.72997833,0.20997497,28.70005799,3.78200861
'1:12.125',0.67997559,-0.65998962,0.22997681,28.50000916,3.78200861
'1:12.250',1.03998596,-0.59998413,0.14996948,28.50000916,3.78200861
'1:12.375',0.96997894,-0.80998566,-0.08000732,28.70005799,3.78200861
'1:12.500',0.73997131,-0.73999695,-0.09000824,28.70005799,3.78200861
'1:12.625',0.92996979,-0.60996735,-0.06000549,28.70005799,3.78200861
'1:12.750',1.02997467,-0.60996735,-0.07000641,28.70005799,3.78200861
'1:12.875',1.02997467,-0.58996551,-0.07000641,28.50000916,3.78200861
'1:13.000',1.02997467,-0.5799823,-0.08000732,28.70005799,3.78200861
'1:13.125',1.02997467,-0.57003449,-0.09000824,28.70005799,3.78200861
'1:13.250',1.02997467,-0.57003449,-0.09000824,28.70005799,3.78200861
'1:13.375',1.03998596,-0.56001587,-0.08000732,28.70005799,3.78200861
'1:13.500',1.03998596,-0.56001587,-0.07000641,28.70005799,3.78200861
'1:13.625',1.03998596,-0.56001587,-0.07000641,28.70005799,3.78200861
'1:13.750',1.03998596,-0.56001587,-0.08000732,28.70005799,3.78200861
'1:13.875',1.03998596,-0.56001587,-0.09000824,28.70005799,3.78200861
'1:14.000',1.03998596,-0.56001587,-0.08000732,28.70005799,3.78200861
'1:14.125',1.04999725,-0.56001587,-0.07000641,28.70005799,3.78200861
'1:14.250',1.04999725,-0.56001587,-0.08000732,28.70005799,3.78200861
'1:14.375',1.03998596,-0.55003265,-0.08000732,28.70005799,3.78200861
'1:14.500',1.03998596,-0.56001587,-0.09000824,28.70005799,3.78200861
'1:14.625',1.03998596,-0.56001587,-0.08000732,28.70005799,3.78200861
'1:14.750',1.03998596,-0.55003265,-0.07000641,28.50000916,3.78200861
'1:14.875',1.03998596,-0.55003265,-0.07000641,28.70005799,3.78200861
'1:15.000',1.02997467,-0.55003265,-0.08000732,28.50000916,3.78200861
'1:15.125',1.02997467,-0.55003265,-0.08000732,28.70005799,3.78200861
'1:15.250',1.03998596,-0.55003265,-0.08000732,28.70005799,3.78200861
'1:15.375',1.03998596,-0.55003265,-0.07000641,28.70005799,3.78200861
'1:15.500',1.03998596,-0.55003265,-0.08000732,28.70005799,3.78200861
'1:15.625',1.06998383,-0.55003265,-0.08000732,28.70005799,3.78200861
'1:15.750',1.04999725,-0.55003265,-0.08000732,28.70005799,3.78200861
'1:15.875',1.04999725,-0.54001404,-0.08000732,28.70005799,3.78200861
'1:16.000',1.04999725,-0.55003265,-0.07000641,28.70005799,3.78200861
'1:16.125',1.04999725,-0.54001404,-0.08000732,28.70005799,3.78200861
'1:16.250',1.04999725,-0.54001404,-0.08000732,28.70005799,3.78200861
'1:16.375',1.03998596,-0.54001404,-0.08000732,28.70005799,3.78200861
'1:16.500',1.04999725,-0.54001404,-0.08000732,28.70005799,3.78200861
'1:16.625',1.04999725,-0.55003265,-0.08000732,28.70005799,3.78200861
'1:16.750',1.04999725,-0.55003265,-0.07000641,28.70005799,3.78200861
'1:16.875',1.04999725,-0.54001404,-0.08000732,28.70005799,3.78200861
'1:17.000',1.04999725,-0.54001404,-0.08000732,28.70005799,3.78200861
'1:17.125',1.04999725,-0.55003265,-0.08000732,28.70005799,3.78200861
'1:17.250',1.04999725,-0.54001404,-0.07000641,28.70005799,3.78200861
'1:17.375',1.03998596,-0.54001404,-0.08000732,28.70005799,3.78200861
'1:17.500',1.04999725,-0.54001404,-0.08000732,28.70005799,3.78200861
'1:17.625',1.05997253,-0.54001404,-0.08000732,28.70005799,3.78200861
'1:17.750',1.05997253,-0.53003082,-0.08000732,28.70005799,3.78200861
'1:17.875',1.04999725,-0.54001404,-0.08000732,28.70005799,3.78200861
'1:18.000',1.04999725,-0.54001404,-0.07000641,28.70005799,3.78200861
'1:18.125',1.04999725,-0.54001404,-0.08000732,28.70005799,3.78200861
'1:18.250',1.04999725,-0.54001404,-0.08000732,28.70005799,3.78200861
'1:18.375',1.04999725,-0.54001404,-0.08000732,28.70005799,3.78200861
'1:18.500',1.04999725,-0.54001404,-0.08000732,28.70005799,3.78200861
'1:18.625',1.04999725,-0.54001404,-0.08000732,28.70005799,3.78200861
'1:18.750',1.04999725,-0.54001404,-0.08000732,28.70005799,3.78200861
'1:18.875',1.04999725,-0.54001404,-0.08000732,28.70005799,3.78200861
'1:19.000',1.05997253,-0.54001404,-0.08000732,28.70005799,3.78200861
'1:19.125',1.04999725,-0.54001404,-0.08000732,28.70005799,3.78200861
'1:19.250',1.04999725,-0.54001404,-0.08000732,28.70005799,3.78200861
'1:19.375',1.04999725,-0.54001404,-0.08000732,28.70005799,3.78200861
'1:19.500',1.04999725,-0.54001404,-0.08000732,28.70005799,3.78200861
'1:19.625',1.04999725,-0.54001404,-0.08000732,28.70005799,3.78200861
'1:19.750',1.04999725,-0.54001404,-0.08000732,28.70005799,3.78200861
'1:19.875',1.05997253,-0.54001404,-0.08000732,28.70005799,3.78200861
'1:20.000',1.04999725,-0.54001404,-0.08000732,28.70005799,3.78200861
'1:20.125',1.04999725,-0.54001404,-0.08000732,28.70005799,3.78200861
'1:20.250',1.04999725,-0.54001404,-0.08000732,28.70005799,3.78200861
'1:20.375',1.04999725,-0.54001404,-0.08000732,28.70005799,3.78200861
'1:20.500',1.05997253,-0.54001404,-0.08000732,28.70005799,3.78200861
'1:20.625',1.04999725,-0.54001404,-0.08000732,28.70005799,3.78200861
'1:20.750',1.04999725,-0.54001404,-0.08000732,28.90000153,3.78200861
'1:20.875',1.04999725,-0.54001404,-0.08000732,28.70005799,3.78200861
'1:21.000',1.04999725,-0.54001404,-0.07000641,28.70005799,3.78200861
'1:21.125',1.04999725,-0.54001404,-0.08000732,28.70005799,3.78200861
'1:21.250',1.04999725,-0.54001404,-0.08000732,28.70005799,3.78200861
'1:21.375',1.04999725,-0.54001404,-0.08000732,28.70005799,3.78200861
'1:21.500',1.04999725,-0.54001404,-0.08000732,28.70005799,3.78200861
'1:21.625',1.04999725,-0.54001404,-0.08000732,28.70005799,3.78200861
'1:21.750',1.05997253,-0.54001404,-0.08000732,28.70005799,3.78200861
'1:21.875',1.04999725,-0.53003082,-0.08000732,28.70005799,3.78200861
'1:22.000',1.04999725,-0.54001404,-0.08000732,28.70005799,3.78200861
'1:22.125',1.04999725,-0.54001404,-0.08000732,28.90000153,3.78200861
'1:22.250',1.05997253,-0.54001404,-0.08000732,28.90000153,3.78200861
'1:22.375',1.05997253,-0.54001404,-0.08000732,28.90000153,3.78200861
'1:22.500',1.04999725,-0.54001404,-0.08000732,28.70005799,3.78200861
'1:22.625',1.04999725,-0.54001404,-0.08000732,28.70005799,3.78200861
'1:22.750',1.05997253,-0.54001404,-0.08000732,28.90000153,3.78200861
'1:22.875',1.05997253,-0.54001404,-0.08000732,28.70005799,3.78200861
'1:23.000',1.04999725,-0.54001404,-0.08000732,28.90000153,3.77607068
'1:23.125',1.05997253,-0.54001404,-0.08000732,28.90000153,3.78200861
'1:23.250',1.04999725,-0.54001404,-0.08000732,28.70005799,3.78200861
'1:23.375',1.04999725,-0.54001404,-0.08000732,28.70005799,3.78200861
'1:23.500',1.05997253,-0.54001404,-0.08000732,28.70005799,3.78200861
'1:23.625',1.04999725,-0.54001404,-0.08000732,28.90000153,3.78200861
'1:23.750',1.04999725,-0.54001404,-0.08000732,28.90000153,3.78200861
'1:23.875',1.05997253,-0.54001404,-0.08000732,28.90000153,3.78200861
'1:24.000',1.04999725,-0.54001404,-0.08000732,28.70005799,3.78200861
'1:24.125',1.04999725,-0.54001404,-0.08000732,28.90000153,3.78200861
'1:24.250',1.05997253,-0.54001404,-0.08000732,28.90000153,3.78200861
'1:24.375',1.05997253,-0.54001404,-0.08000732,28.90000153,3.78200861
'1:24.500',1.05997253,-0.54001404,-0.08000732,28.90000153,3.78200861
'1:24.625',1.04999725,-0.53003082,-0.08000732,28.90000153,3.78200861
'1:24.750',1.04999725,-0.54001404,-0.08000732,28.90000153,3.78200861
'1:24.875',1.04999725,-0.54001404,-0.08000732,28.90000153,3.78200861
'1:25.000',1.04999725,-0.54001404,-0.08000732,28.90000153,3.77607068
'1:25.125',1.04999725,-0.54001404,-0.08000732,28.90000153,3.78200861
'1:25.250',1.05997253,-0.54001404,-0.08000732,28.90000153,3.78200861
'1:25.375',1.04999725,-0.54001404,-0.08000732,28.90000153,3.78200861
'1:25.500',1.04999725,-0.54001404,-0.08000732,28.90000153,3.78200861
'1:25.625',1.04999725,-0.54001404,-0.08000732,28.90000153,3.77607068
'1:25.750',1.04999725,-0.54001404,-0.08000732,28.90000153,3.78200861
'1:25.875',1.04999725,-0.54001404,-0.08000732,28.90000153,3.77607068
'1:26.000',1.04999725,-0.54001404,-0.08000732,28.90000153,3.77607068
'1:26.125',1.04999725,-0.54001404,-0.07000641,28.90000153,3.77607068
'1:26.250',1.05997253,-0.54001404,-0.08000732,28.90000153,3.77607068
'1:26.375',1.05997253,-0.54001404,-0.08000732,28.90000153,3.78200861
'1:26.500',1.05997253,-0.54001404,-0.08000732,28.90000153,3.78200861
'1:26.625',1.04999725,-0.54001404,-0.08000732,28.90000153,3.78200861
'1:26.750',1.05997253,-0.53003082,-0.08000732,28.90000153,3.77607068
'1:26.875',1.04999725,-0.54001404,-0.08000732,28.90000153,3.77607068
'1:27.000',1.05997253,-0.53003082,-0.08000732,28.90000153,3.77607068
'1:27.125',1.05997253,-0.54001404,-0.08000732,28.90000153,3.77607068
'1:27.250',1.04999725,-0.53003082,-0.08000732,28.90000153,3.74800049
'1:27.375',1.04999725,-0.54001404,-0.08000732,28.90000153,3.77607068
'1:27.500',1.04999725,-0.54001404,-0.08000732,28.90000153,3.77607068
'1:27.625',1.04999725,-0.54001404,-0.08000732,28.90000153,3.77607068
'1:27.750',1.04999725,-0.54001404,-0.08000732,28.90000153,3.77607068
'1:27.875',1.04999725,-0.54001404,-0.08000732,28.90000153,3.77607068
'1:28.000',1.04999725,-0.54001404,-0.08000732,28.90000153,3.74800049
'1:28.125',1.04999725,-0.54001404,-0.08000732,28.90000153,3.74800049
'1:28.250',1.04999725,-0.54001404,-0.08000732,28.90000153,3.77607068
'1:28.375',1.04999725,-0.54001404,-0.08000732,28.90000153,3.77607068
'1:28.500',1.05997253,-0.53003082,-0.08000732,28.90000153,3.77607068
'1:28.625',1.04999725,-0.54001404,-0.08000732,28.90000153,3.77607068
'1:28.750',1.04999725,-0.53003082,-0.08000732,28.90000153,3.74800049
'1:28.875',1.04999725,-0.54001404,-0.08000732,28.90000153,3.77607068
'1:29.000',1.04999725,-0.54001404,-0.08000732,28.90000153,3.74800049
'1:29.125',1.04999725,-0.54001404,-0.08000732,28.90000153,3.74800049
'1:29.250',1.04999725,-0.54001404,-0.08000732,28.90000153,3.74800049
'1:29.375',1.05997253,-0.54001404,-0.08000732,28.90000153,3.74800049
'1:29.500',1.04999725,-0.53003082,-0.08000732,28.90000153,3.77607068
'1:29.625',1.04999725,-0.54001404,-0.08000732,28.90000153,3.74800049
'1:29.750',1.04999725,-0.54001404,-0.08000732,28.90000153,3.77607068
'1:29.875',1.05997253,-0.54001404,-0.08000732,28.90000153,3.77607068
'1:30.000',1.04999725,-0.54001404,-0.08000732,28.90000153,3.77607068
'1:30.125',1.04999725,-0.54001404,-0.08000732,28.90000153,3.74800049
'1:30.250',1.04999725,-0.54001404,-0.08000732,28.90000153,3.74800049
'1:30.375',1.05997253,-0.53003082,-0.08000732,28.90000153,3.77607068
'1:30.500',1.05997253,-0.53003082,-0.08000732,28.90000153,3.74800049
'1:30.625',1.04999725,-0.53003082,-0.08000732,28.90000153,3.74800049
'1:30.750',1.04999725,-0.54001404,-0.08000732,28.90000153,3.74800049
'1:30.875',1.04999725,-0.53003082,-0.08000732,28.90000153,3.74800049
'1:31.000',1.05997253,-0.53003082,-0.08000732,28.90000153,3.74800049
'1:31.125',1.04999725,-0.54001404,-0.08000732,28.90000153,3.74800049
'1:31.250',1.04999725,-0.53003082,-0.08000732,28.90000153,3.74800049
'1:31.375',1.04999725,-0.53003082,-0.08000732,28.90000153,3.74800049
'1:31.500',1.04999725,-0.54001404,-0.08000732,28.90000153,3.74800049
'1:31.625',1.04999725,-0.53003082,-0.08000732,28.90000153,3.74800049
'1:31.750',1.04999725,-0.54001404,-0.08000732,28.90000153,3.74800049
'1:31.875',1.05997253,-0.53003082,-0.08000732,28.90000153,3.74800049
'1:32.000',1.05997253,-0.54001404,-0.08000732,28.90000153,3.74800049
'1:32.125',1.04999725,-0.54001404,-0.08000732,28.90000153,3.77607068
'1:32.250',1.04999725,-0.53003082,-0.08000732,28.90000153,3.74800049
'1:32.375',1.04999725,-0.53003082,-0.08000732,28.90000153,3.77607068
'1:32.500',1.05997253,-0.54001404,-0.08000732,28.90000153,3.74800049
'1:32.625',1.04999725,-0.54001404,-0.08000732,28.90000153,3.77607068
'1:32.750',1.04999725,-0.54001404,-0.08000732,28.90000153,3.74800049
'1:32.875',1.05997253,-0.53003082,-0.08000732,28.90000153,3.74800049
'1:33.000',1.04999725,-0.54001404,-0.08000732,28.90000153,3.77607068
'1:33.125',1.04999725,-0.54001404,-0.08000732,28.90000153,3.77607068
'1:33.250',1.05997253,-0.54001404,-0.08000732,28.90000153,3.77607068
'1:33.375',1.04999725,-0.54001404,-0.08000732,28.90000153,3.77607068
'1:33.500',1.04999725,-0.53003082,-0.08000732,28.90000153,3.74800049
'1:33.625',1.04999725,-0.53003082,-0.08000732,28.90000153,3.74800049
'1:33.750',1.04999725,-0.53003082,-0.08000732,29.10005036,3.74800049
'1:33.875',1.04999725,-0.53003082,-0.08000732,28.90000153,3.77607068
'1:34.000',1.04999725,-0.54001404,-0.08000732,28.90000153,3.77607068
'1:34.125',1.05997253,-0.53003082,-0.08000732,29.10005036,3.77607068
'1:34.250',1.04999725,-0.53003082,-0.08000732,28.90000153,3.77607068
'1:34.375',1.04999725,-0.53003082,-0.08000732,28.90000153,3.74800049
'1:34.500',1.04999725,-0.53003082,-0.08000732,28.90000153,3.77607068
'1:34.625',1.05997253,-0.53003082,-0.08000732,28.90000153,3.77607068
'1:34.750',1.04999725,-0.53003082,-0.08000732,29.10005036,3.77607068
'1:34.875',1.05997253,-0.53003082,-0.08000732,28.90000153,3.77607068
'1:35.000',1.05997253,-0.53003082,-0.08000732,29.10005036,3.77607068
'1:35.125',1.05997253,-0.53003082,-0.08000732,28.90000153,3.77607068
'1:35.250',1.04999725,-0.54001404,-0.08000732,28.90000153,3.77607068
'1:35.375',1.04999725,-0.53003082,-0.08000732,29.10005036,3.74800049
'1:35.500',1.05997253,-0.53003082,-0.08000732,29.10005036,3.77607068
'1:35.625',1.04999725,-0.54001404,-0.08000732,28.90000153,3.77607068
'1:35.750',1.05997253,-0.54001404,-0.08000732,28.90000153,3.77607068
'1:35.875',1.04999725,-0.53003082,-0.08000732,29.10005036,3.74800049
'1:36.000',1.04999725,-0.54001404,-0.08000732,29.10005036,3.77607068
'1:36.125',1.05997253,-0.54001404,-0.08000732,29.10005036,3.74800049
'1:36.250',1.04999725,-0.54001404,-0.08000732,29.10005036,3.74800049
'1:36.375',1.05997253,-0.54001404,-0.08000732,29.10005036,3.74800049
'1:36.500',1.05997253,-0.54001404,-0.08000732,29.10005036,3.74800049
'1:36.625',1.04999725,-0.54001404,-0.08000732,29.10005036,3.74800049
'1:36.750',1.04999725,-0.54001404,-0.08000732,29.10005036,3.74800049
'1:36.875',1.04999725,-0.53003082,-0.08000732,29.10005036,3.74800049
'1:37.000',1.04999725,-0.53003082,-0.08000732,29.10005036,3.74800049
'1:37.125',1.04999725,-0.54001404,-0.08000732,29.10005036,3.74800049
'1:37.250',1.05997253,-0.53003082,-0.08000732,29.10005036,3.77607068
'1:37.375',1.04999725,-0.54001404,-0.08000732,29.10005036,3.74800049
'1:37.500',1.05997253,-0.53003082,-0.08000732,29.10005036,3.74800049
'1:37.625',1.04999725,-0.53003082,-0.08000732,29.10005036,3.74800049
'1:37.750',1.04999725,-0.54001404,-0.08000732,29.10005036,3.74800049
'1:37.875',1.04999725,-0.53003082,-0.08000732,29.10005036,3.77607068
'1:38.000',1.05997253,-0.53003082,-0.08000732,29.10005036,3.74800049
'1:38.125',1.04999725,-0.53003082,-0.08000732,28.90000153,3.77607068
'1:38.250',1.05997253,-0.53003082,-0.08000732,29.10005036,3.74800049
'1:38.375',1.05997253,-0.53003082,-0.08000732,29.10005036,3.74800049
'1:38.500',1.04999725,-0.54001404,-0.08000732,29.10005036,3.74800049
'1:38.625',1.05997253,-0.53003082,-0.08000732,29.10005036,3.77607068
'1:38.750',1.04999725,-0.53003082,-0.08000732,29.10005036,3.74800049
'1:38.875',1.04999725,-0.53003082,-0.08000732,29.10005036,3.74800049
'1:39.000',1.05997253,-0.53003082,-0.08000732,29.10005036,3.74800049
'1:39.125',1.05997253,-0.53003082,-0.08000732,29.10005036,3.74800049
'1:39.250',1.04999725,-0.53003082,-0.08000732,29.10005036,3.74800049
'1:39.375',1.05997253,-0.53003082,-0.08000732,29.10005036,3.74800049
'1:39.500',1.05997253,-0.53003082,-0.08000732,29.10005036,3.74800049
'1:39.625',1.04999725,-0.53003082,-0.08000732,29.10005036,3.74800049
'1:39.750',1.05997253,-0.53003082,-0.07000641,29.10005036,3.74800049
'1:39.875',1.05997253,-0.53003082,-0.08000732,29.10005036,3.77607068
'1:40.000',1.05997253,-0.53003082,-0.08000732,29.10005036,3.74800049
'1:40.125',1.05997253,-0.53003082,-0.08000732,29.10005036,3.74800049
'1:40.250',1.04999725,-0.53003082,-0.08000732,29.10005036,3.77607068
'1:40.375',1.04999725,-0.54001404,-0.08000732,29.10005036,3.77607068
'1:40.500',1.05997253,-0.53003082,-0.08000732,29.10005036,3.74800049
'1:40.625',1.05997253,-0.53003082,-0.08000732,29.10005036,3.77607068
'1:40.750',1.05997253,-0.53003082,-0.08000732,29.10005036,3.74800049
'1:40.875',1.04999725,-0.53003082,-0.08000732,29.10005036,3.77607068
'1:41.000',1.04999725,-0.53003082,-0.08000732,29.10005036,3.74800049
'1:41.125',1.05997253,-0.53003082,-0.08000732,29.10005036,3.77607068
'1:41.250',1.05997253,-0.53003082,-0.08000732,29.10005036,3.77607068
'1:41.375',1.05997253,-0.53003082,-0.08000732,29.10005036,3.74800049
'1:41.500',1.04999725,-0.53003082,-0.08000732,29.10005036,3.77607068
'1:41.625',1.05997253,-0.53003082,-0.08000732,29.10005036,3.74800049
'1:41.750',1.04999725,-0.54001404,-0.08000732,29.10005036,3.74800049
'1:41.875',1.04999725,-0.54001404,-0.08000732,29.10005036,3.74800049
'1:42.000',1.04999725,-0.54001404,-0.08000732,29.10005036,3.77607068
'1:42.125',1.04999725,-0.53003082,-0.08000732,29.10005036,3.74800049
'1:42.250',1.04999725,-0.54001404,-0.08000732,29.10005036,3.74800049
'1:42.375',1.05997253,-0.53003082,-0.08000732,29.10005036,3.74800049
'1:42.500',1.04999725,-0.53003082,-0.08000732,29.10005036,3.74800049
'1:42.625',1.05997253,-0.53003082,-0.08000732,29.10005036,3.74800049
'1:42.750',1.05997253,-0.53003082,-0.08000732,29.10005036,3.74800049
'1:42.875',1.05997253,-0.53003082,-0.08000732,29.10005036,3.77607068
'1:43.000',1.05997253,-0.53003082,-0.08000732,29.10005036,3.74800049
'1:43.125',1.04999725,-0.53003082,-0.08000732,29.10005036,3.77607068
'1:43.250',1.05997253,-0.53003082,-0.08000732,29.10005036,3.77607068
'1:43.375',1.05997253,-0.53003082,-0.08000732,29.10005036,3.74800049
'1:43.500',1.05997253,-0.53003082,-0.08000732,29.10005036,3.74800049
'1:43.625',1.04999725,-0.53003082,-0.08000732,29.10005036,3.74800049
'1:43.750',1.05997253,-0.53003082,-0.08000732,29.10005036,3.74800049
'1:43.875',1.04999725,-0.54001404,-0.08000732,29.10005036,3.74800049
'1:44.000',1.05997253,-0.53003082,-0.08000732,29.10005036,3.74800049
'1:44.125',1.05997253,-0.53003082,-0.08000732,29.10005036,3.74800049
'1:44.250',1.04999725,-0.53003082,-0.08000732,29.10005036,3.74800049
'1:44.375',1.05997253,-0.53003082,-0.08000732,29.10005036,3.77607068
'1:44.500',1.04999725,-0.53003082,-0.08000732,29.10005036,3.74800049
'1:44.625',1.05997253,-0.53003082,-0.08000732,29.10005036,3.77607068
'1:44.750',1.04999725,-0.53003082,-0.08000732,29.10005036,3.77607068
'1:44.875',1.05997253,-0.54001404,-0.08000732,29.10005036,3.77607068
'1:45.000',1.05997253,-0.53003082,-0.08000732,29.10005036,3.77607068
'1:45.125',1.05997253,-0.53003082,-0.08000732,29.10005036,3.74800049
'1:45.250',1.05997253,-0.53003082,-0.08000732,29.10005036,3.74800049
'1:45.375',1.05997253,-0.53003082,-0.08000732,29.10005036,3.74800049
'1:45.500',1.05997253,-0.53003082,-0.08000732,29.10005036,3.74800049
'1:45.625',1.05997253,-0.53003082,-0.08000732,29.10005036,3.74800049
'1:45.750',1.05997253,-0.54001404,-0.08000732,29.10005036,3.74800049
'1:45.875',1.05997253,-0.53003082,-0.08000732,29.10005036,3.74800049
'1:46.000',1.05997253,-0.53003082,-0.08000732,29.10005036,3.74800049
'1:46.125',1.04999725,-0.53003082,-0.08000732,29.10005036,3.74800049
'1:46.250',1.05997253,-0.53003082,-0.08000732,29.10005036,3.74800049
'1:46.375',1.05997253,-0.53003082,-0.08000732,29.10005036,3.74800049
'1:46.500',1.04999725,-0.53003082,-0.08000732,29.10005036,3.74800049
'1:46.625',1.05997253,-0.53003082,-0.08000732,29.10005036,3.74800049
'1:46.750',1.05997253,-0.53003082,-0.08000732,29.10005036,3.74800049
'1:46.875',1.04999725,-0.53003082,-0.08000732,29.10005036,3.74800049
'1:47.000',1.05997253,-0.53003082,-0.08000732,29.10005036,3.74800049
'1:47.125',1.04999725,-0.53003082,-0.08000732,29.10005036,3.74800049
'1:47.250',1.04999725,-0.53003082,-0.08000732,29.30009919,3.74800049
'1:47.375',1.05997253,-0.53003082,-0.08000732,29.10005036,3.74800049
'1:47.500',1.05997253,-0.53003082,-0.08000732,29.10005036,3.74800049
'1:47.625',1.05997253,-0.53003082,-0.08000732,29.10005036,3.74800049
'1:47.750',1.05997253,-0.53003082,-0.08000732,29.10005036,3.74800049
'1:47.875',1.04999725,-0.53003082,-0.08000732,29.10005036,3.74800049
'1:48.000',1.04999725,-0.53003082,-0.08000732,29.30009919,3.74800049
'1:48.125',1.05997253,-0.53003082,-0.08000732,29.10005036,3.74800049
'1:48.250',1.05997253,-0.53003082,-0.08000732,29.10005036,3.74800049
'1:48.375',1.05997253,-0.53003082,-0.08000732,29.10005036,3.74800049
'1:48.500',1.04999725,-0.53003082,-0.08000732,29.10005036,3.74800049
'1:48.625',1.05997253,-0.53003082,-0.08000732,29.10005036,3.74800049
'1:48.750',1.05997253,-0.53003082,-0.08000732,29.10005036,3.74800049
'1:48.875',1.04999725,-0.53003082,-0.08000732,29.10005036,3.74800049
'1:49.000',1.05997253,-0.53003082,-0.07000641,29.30009919,3.74800049
'1:49.125',1.04999725,-0.53003082,-0.08000732,29.30009919,3.74800049
'1:49.250',1.04999725,-0.53003082,-0.08000732,29.10005036,3.74800049
'1:49.375',1.05997253,-0.53003082,-0.08000732,29.10005036,3.74800049
'1:49.500',1.04999725,-0.53003082,-0.08000732,29.10005036,3.74800049
'1:49.625',1.05997253,-0.53003082,-0.08000732,29.10005036,3.74800049
'1:49.750',1.05997253,-0.53003082,-0.08000732,29.10005036,3.74206256
'1:49.875',1.05997253,-0.53003082,-0.08000732,29.30009919,3.74800049
'1:50.000',1.05997253,-0.53003082,-0.08000732,29.10005036,3.74800049
'1:50.125',1.05997253,-0.53003082,-0.08000732,29.10005036,3.74800049
'1:50.250',1.05997253,-0.53003082,-0.08000732,29.10005036,3.74800049
'1:50.375',1.05997253,-0.53003082,-0.08000732,29.30009919,3.74206256
'1:50.500',1.05997253,-0.53003082,-0.08000732,29.10005036,3.74800049
'1:50.625',1.05997253,-0.53003082,-0.08000732,29.30009919,3.74800049
'1:50.750',1.04999725,-0.53003082,-0.08000732,29.10005036,3.74800049
'1:50.875',1.04999725,-0.53003082,-0.08000732,29.10005036,3.74206256
'1:51.000',1.04999725,-0.53003082,-0.08000732,29.10005036,3.74800049
'1:51.125',1.05997253,-0.53003082,-0.08000732,29.30009919,3.74800049
'1:51.250',1.05997253,-0.53003082,-0.08000732,29.10005036,3.74800049
'1:51.375',1.04999725,-0.53003082,-0.08000732,29.10005036,3.74206256
'1:51.500',1.05997253,-0.53003082,-0.08000732,29.30009919,3.74800049
'1:51.625',1.04999725,-0.53003082,-0.08000732,29.30009919,3.74800049
'1:51.750',1.05997253,-0.53003082,-0.08000732,29.30009919,3.74800049
'1:51.875',1.05997253,-0.53003082,-0.07000641,29.30009919,3.74800049
'1:52.000',1.05997253,-0.53003082,-0.08000732,29.30009919,3.74800049
'1:52.125',1.05997253,-0.53003082,-0.08000732,29.30009919,3.77004279
'1:52.250',1.05997253,-0.53003082,-0.08000732,29.30009919,3.74800049
'1:52.375',1.05997253,-0.53003082,-0.08000732,29.10005036,3.74800049
'1:52.500',1.05997253,-0.53003082,-0.08000732,29.30009919,3.74206256
'1:52.625',1.05997253,-0.53003082,-0.08000732,29.30009919,3.74800049
'1:52.750',1.04999725,-0.53003082,-0.08000732,29.30009919,3.74800049
'1:52.875',1.05997253,-0.53003082,-0.08000732,29.30009919,3.74206256
'1:53.000',1.04999725,-0.53003082,-0.08000732,29.30009919,3.74800049
'1:53.125',1.06998383,-0.52001221,-0.08000732,29.30009919,3.74206256
'1:53.250',1.05997253,-0.53003082,-0.08000732,29.30009919,3.74206256
'1:53.375',1.05997253,-0.53003082,-0.08000732,29.30009919,3.74206256
'1:53.500',1.05997253,-0.53003082,-0.08000732,29.30009919,3.74206256
'1:53.625',1.04999725,-0.53003082,-0.08000732,29.10005036,3.74206256
'1:53.750',1.05997253,-0.53003082,-0.08000732,29.30009919,3.74800049
'1:53.875',1.04999725,-0.53003082,-0.08000732,29.10005036,3.74206256
'1:54.000',1.05997253,-0.53003082,-0.08000732,29.30009919,3.74206256
'1:54.125',1.05997253,-0.53003082,-0.08000732,29.30009919,3.74206256
'1:54.250',1.04999725,-0.53003082,-0.08000732,29.30009919,3.74206256
'1:54.375',1.05997253,-0.53003082,-0.08000732,29.30009919,3.74800049
'1:54.500',1.05997253,-0.53003082,-0.08000732,29.30009919,3.74800049
'1:54.625',1.05997253,-0.53003082,-0.08000732,29.30009919,3.74206256
'1:54.750',1.04999725,-0.53003082,-0.08000732,29.30009919,3.72002026
'1:54.875',1.05997253,-0.53003082,-0.08000732,29.30009919,3.74206256
'1:55.000',1.05997253,-0.53003082,-0.08000732,29.30009919,3.74206256
'1:55.125',1.05997253,-0.53003082,-0.08000732,29.30009919,3.71507199
'1:55.250',1.05997253,-0.53003082,-0.08000732,29.30009919,3.74206256
'1:55.375',1.04999725,-0.53003082,-0.08000732,29.30009919,3.71507199
'1:55.500',1.04999725,-0.53003082,-0.08000732,29.30009919,3.74206256
'1:55.625',1.05997253,-0.53003082,-0.08000732,29.30009919,3.71507199
'1:55.750',1.05997253,-0.53003082,-0.07000641,29.30009919,3.74206256
'1:55.875',1.04999725,-0.53003082,-0.08000732,29.30009919,3.74206256
'1:56.000',1.05997253,-0.53003082,-0.08000732,29.30009919,3.74206256
'1:56.125',1.04999725,-0.53003082,-0.08000732,29.30009919,3.74206256
'1:56.250',1.05997253,-0.53003082,-0.08000732,29.30009919,3.74206256
'1:56.375',1.05997253,-0.53003082,-0.08000732,29.30009919,3.71507199
'1:56.500',1.05997253,-0.53003082,-0.09000824,29.50004273,3.7090441
'1:56.625',1.05997253,-0.53003082,-0.08000732,29.50004273,3.71507199
'1:56.750',1.05997253,-0.54001404,-0.09000824,29.50004273,3.7090441
'1:56.875',1.04999725,-0.53003082,-0.09000824,29.50004273,3.71507199
'1:57.000',1.05997253,-0.53003082,-0.08000732,29.30009919,3.74206256
'1:57.125',1.05997253,-0.53003082,-0.08000732,29.30009919,3.71507199
'1:57.250',1.05997253,-0.53003082,-0.08000732,29.30009919,3.71507199
'1:57.375',1.04999725,-0.53003082,-0.08000732,29.30009919,3.74206256
'1:57.500',1.04999725,-0.53003082,-0.08000732,29.30009919,3.71507199
'1:57.625',1.05997253,-0.53003082,-0.08000732,29.30009919,3.71507199
'1:57.750',1.05997253,-0.53003082,-0.08000732,29.30009919,3.71507199
'1:57.875',1.04999725,-0.53003082,-0.08000732,29.30009919,3.71507199
'1:58.000',1.05997253,-0.53003082,-0.07000641,29.30009919,3.71507199
'1:58.125',1.05997253,-0.53003082,-0.08000732,29.30009919,3.73603467
'1:58.250',1.05997253,-0.53003082,-0.08000732,29.30009919,3.71507199
'1:58.375',1.05997253,-0.53003082,-0.08000732,29.30009919,3.71507199
'1:58.500',1.05997253,-0.53003082,-0.08000732,29.30009919,3.71507199
'1:58.625',1.05997253,-0.53003082,-0.08000732,29.30009919,3.71507199
'1:58.750',1.05997253,-0.53003082,-0.07000641,29.30009919,3.71507199
'1:58.875',1.05997253,-0.53003082,-0.08000732,29.30009919,3.71507199
'1:59.000',1.05997253,-0.53003082,-0.07000641,29.30009919,3.71507199
'1:59.125',1.05997253,-0.53003082,-0.08000732,29.30009919,3.74206256
'1:59.250',1.04999725,-0.53003082,-0.08000732,29.30009919,3.71507199
'1:59.375',1.05997253,-0.53003082,-0.08000732,29.30009919,3.71507199
'1:59.500',1.05997253,-0.53003082,-0.07000641,29.30009919,3.71507199
'1:59.625',1.06998383,-0.53003082,-0.07000641,29.30009919,3.71507199
'1:59.750',1.05997253,-0.53003082,-0.08000732,29.30009919,3.71507199
'1:59.875',1.05997253,-0.53003082,-0.08000732,29.30009919,3.71507199
'2:00.000',1.05997253,-0.53003082,-0.08000732,29.30009919,3.71507199
'2:00.125',1.05997253,-0.53003082,-0.08000732,29.30009919,3.71507199
'2:00.250',1.04999725,-0.53003082,-0.08000732,29.30009919,3.73603467
'2:00.375',1.05997253,-0.53003082,-0.08000732,29.30009919,3.71507199
'2:00.500',1.04999725,-0.53003082,-0.08000732,29.30009919,3.71507199
'2:00.625',1.04999725,-0.53003082,-0.08000732,29.30009919,3.71507199
'2:00.750',1.05997253,-0.53003082,-0.07000641,29.30009919,3.71507199
'2:00.875',1.05997253,-0.53003082,-0.08000732,29.30009919,3.71507199
'2:01.000',1.05997253,-0.53003082,-0.08000732,29.30009919,3.71507199
'2:01.125',1.04999725,-0.53003082,-0.08000732,29.30009919,3.73603467
'2:01.250',1.05997253,-0.53003082,-0.08000732,29.30009919,3.71507199
'2:01.375',1.04999725,-0.53003082,-0.08000732,29.30009919,3.71507199
'2:01.500',1.05997253,-0.53003082,-0.07000641,29.30009919,3.71507199
'2:01.625',1.05997253,-0.53003082,-0.08000732,29.30009919,3.71507199
'2:01.750',1.04999725,-0.53003082,-0.08000732,29.30009919,3.71507199
'2:01.875',1.04999725,-0.53003082,-0.08000732,29.30009919,3.71507199
'2:02.000',1.04999725,-0.53003082,-0.08000732,29.30009919,3.71507199
'2:02.125',1.05997253,-0.53003082,-0.08000732,29.30009919,3.71507199
'2:02.250',1.05997253,-0.53003082,-0.08000732,29.30009919,3.71507199
'2:02.375',1.04999725,-0.53003082,-0.08000732,29.30009919,3.71507199
'2:02.500',1.05997253,-0.53003082,-0.08000732,29.50004273,3.71507199
'2:02.625',1.05997253,-0.53003082,-0.07000641,29.30009919,3.71507199
'2:02.750',1.05997253,-0.53003082,-0.08000732,29.50004273,3.71507199
'2:02.875',1.04999725,-0.53003082,-0.08000732,29.30009919,3.71507199
'2:03.000',1.05997253,-0.53003082,-0.08000732,29.30009919,3.71507199
'2:03.125',1.05997253,-0.53003082,-0.08000732,29.30009919,3.71507199
'2:03.250',1.05997253,-0.53003082,-0.08000732,29.30009919,3.71507199
'2:03.375',1.04999725,-0.53003082,-0.08000732,29.30009919,3.71507199
'2:03.500',1.04999725,-0.53003082,-0.08000732,29.30009919,3.71507199
'2:03.625',1.04999725,-0.53003082,-0.08000732,29.30009919,3.71507199
'2:03.750',1.05997253,-0.53003082,-0.08000732,29.30009919,3.73603467
'2:03.875',1.05997253,-0.53003082,-0.08000732,29.30009919,3.71507199
'2:04.000',1.05997253,-0.53003082,-0.08000732,29.30009919,3.71507199
'2:04.125',1.05997253,-0.53003082,-0.08000732,29.30009919,3.71507199
'2:04.250',1.05997253,-0.53003082,-0.08000732,29.30009919,3.71507199
'2:04.375',1.05997253,-0.53003082,-0.08000732,29.30009919,3.71507199
'2:04.500',1.04999725,-0.53003082,-0.08000732,29.30009919,3.71507199
'2:04.625',1.05997253,-0.53003082,-0.08000732,29.30009919,3.71507199
'2:04.750',1.04999725,-0.53003082,-0.08000732,29.50004273,3.71507199
'2:04.875',1.04999725,-0.53003082,-0.08000732,29.30009919,3.71507199
'2:05.000',1.05997253,-0.53003082,-0.08000732,29.30009919,3.71507199
'2:05.125',1.05997253,-0.53003082,-0.08000732,29.30009919,3.71507199
'2:05.250',1.04999725,-0.53003082,-0.08000732,29.30009919,3.71507199
'2:05.375',1.05997253,-0.53003082,-0.08000732,29.50004273,3.71507199
'2:05.500',1.04999725,-0.53003082,-0.07000641,29.30009919,3.71507199
'2:05.625',1.04999725,-0.53003082,-0.08000732,29.30009919,3.71507199
'2:05.750',1.04999725,-0.53003082,-0.08000732,29.50004273,3.71507199
'2:05.875',1.05997253,-0.53003082,-0.08000732,29.30009919,3.71507199
'2:06.000',1.05997253,-0.53003082,-0.08000732,29.30009919,3.71507199
'2:06.125',1.04999725,-0.53003082,-0.08000732,29.30009919,3.71507199
'2:06.250',1.05997253,-0.53003082,-0.08000732,29.50004273,3.71507199
'2:06.375',1.05997253,-0.53003082,-0.08000732,29.30009919,3.71507199
'2:06.500',1.04999725,-0.53003082,-0.08000732,29.50004273,3.74206256
'2:06.625',1.05997253,-0.53003082,-0.08000732,29.50004273,3.71507199
'2:06.750',1.05997253,-0.53003082,-0.08000732,29.50004273,3.74206256
'2:06.875',1.05997253,-0.53003082,-0.08000732,29.30009919,3.71507199
'2:07.000',1.05997253,-0.53003082,-0.08000732,29.30009919,3.71507199
'2:07.125',1.05997253,-0.53003082,-0.08000732,29.30009919,3.74206256
'2:07.250',1.05997253,-0.53003082,-0.08000732,29.50004273,3.71507199
'2:07.375',1.05997253,-0.53003082,-0.08000732,29.30009919,3.71507199
'2:07.500',1.05997253,-0.53003082,-0.08000732,29.30009919,3.74206256
'2:07.625',1.05997253,-0.53003082,-0.08000732,29.50004273,3.71507199
'2:07.750',1.05997253,-0.53003082,-0.08000732,29.30009919,3.74206256
'2:07.875',1.04999725,-0.53003082,-0.08000732,29.30009919,3.71507199
'2:08.000',1.04999725,-0.53003082,-0.08000732,29.50004273,3.74206256
'2:08.125',1.05997253,-0.53003082,-0.08000732,29.30009919,3.71507199
'2:08.250',1.05997253,-0.53003082,-0.08000732,29.50004273,3.74206256
'2:08.375',1.05997253,-0.53003082,-0.08000732,29.30009919,3.71507199
'2:08.500',1.04999725,-0.53003082,-0.08000732,29.30009919,3.71507199
'2:08.625',1.05997253,-0.53003082,-0.08000732,29.50004273,3.71507199
'2:08.750',1.04999725,-0.53003082,-0.08000732,29.50004273,3.71507199
'2:08.875',1.05997253,-0.53003082,-0.08000732,29.50004273,3.71507199
'2:09.000',1.05997253,-0.53003082,-0.08000732,29.50004273,3.71507199
'2:09.125',1.05997253,-0.53003082,-0.08000732,29.30009919,3.71507199
'2:09.250',1.05997253,-0.53003082,-0.08000732,29.30009919,3.74206256
'2:09.375',1.05997253,-0.53003082,-0.08000732,29.50004273,3.74206256
'2:09.500',1.05997253,-0.53003082,-0.08000732,29.50004273,3.74206256
'2:09.625',1.05997253,-0.53003082,-0.08000732,29.30009919,3.71507199
'2:09.750',1.04999725,-0.53003082,-0.08000732,29.50004273,3.71507199
'2:09.875',1.05997253,-0.53003082,-0.07000641,29.50004273,3.71507199
'2:10.000',1.05997253,-0.53003082,-0.08000732,29.30009919,3.71507199
'2:10.125',1.05997253,-0.53003082,-0.08000732,29.50004273,3.71507199
'2:10.250',1.05997253,-0.53003082,-0.08000732,29.50004273,3.71507199
'2:10.375',1.05997253,-0.53003082,-0.08000732,29.50004273,3.71507199
'2:10.500',1.05997253,-0.53003082,-0.08000732,29.50004273,3.71507199
'2:10.625',1.04999725,-0.52001221,-0.08000732,29.50004273,3.71507199
'2:10.750',1.05997253,-0.53003082,-0.08000732,29.30009919,3.71507199
'2:10.875',1.05997253,-0.53003082,-0.08000732,29.50004273,3.71507199
'2:11.000',1.04999725,-0.53003082,-0.08000732,29.50004273,3.71507199
'2:11.125',1.05997253,-0.53003082,-0.08000732,29.50004273,3.71507199
'2:11.250',1.05997253,-0.53003082,-0.08000732,29.50004273,3.71507199
'2:11.375',1.04999725,-0.53003082,-0.08000732,29.50004273,3.71507199
'2:11.500',1.05997253,-0.53003082,-0.08000732,29.50004273,3.71507199
'2:11.625',1.05997253,-0.53003082,-0.08000732,29.50004273,3.71507199
'2:11.750',1.05997253,-0.53003082,-0.08000732,29.50004273,3.71507199
'2:11.875',1.05997253,-0.53003082,-0.08000732,29.50004273,3.71507199
'2:12.000',1.05997253,-0.53003082,-0.08000732,29.50004273,3.71507199
'2:12.125',1.05997253,-0.52001221,-0.08000732,29.50004273,3.71507199
'2:12.250',1.04999725,-0.53003082,-0.08000732,29.50004273,3.71507199
'2:12.375',1.05997253,-0.53003082,-0.08000732,29.50004273,3.71507199
'2:12.500',1.05997253,-0.53003082,-0.07000641,29.50004273,3.71507199
'2:12.625',1.05997253,-0.53003082,-0.08000732,29.50004273,3.71507199
'2:12.750',1.05997253,-0.53003082,-0.08000732,29.50004273,3.71507199
'2:12.875',1.05997253,-0.53003082,-0.08000732,29.50004273,3.71507199
'2:13.000',1.04999725,-0.53003082,-0.07000641,29.50004273,3.71507199
'2:13.125',1.05997253,-0.53003082,-0.08000732,29.50004273,3.71507199
'2:13.250',1.04999725,-0.53003082,-0.07000641,29.50004273,3.71507199
'2:13.375',1.05997253,-0.53003082,-0.08000732,29.50004273,3.7090441
'2:13.500',1.04999725,-0.52001221,-0.08000732,29.50004273,3.71507199
'2:13.625',1.05997253,-0.53003082,-0.08000732,29.50004273,3.71507199
'2:13.750',1.05997253,-0.53003082,-0.08000732,29.50004273,3.71507199
'2:13.875',1.04999725,-0.53003082,-0.08000732,29.50004273,3.71507199
'2:14.000',1.04999725,-0.53003082,-0.08000732,29.50004273,3.71507199
'2:14.125',1.04999725,-0.53003082,-0.08000732,29.50004273,3.71507199
'2:14.250',1.04999725,-0.53003082,-0.07000641,29.50004273,3.7090441
'2:14.375',1.04999725,-0.53003082,-0.08000732,29.50004273,3.7090441
'2:14.500',1.05997253,-0.53003082,-0.08000732,29.50004273,3.7090441
'2:14.625',1.05997253,-0.53003082,-0.08000732,29.50004273,3.7090441
'2:14.750',1.05997253,-0.53003082,-0.08000732,29.50004273,3.7090441
'2:14.875',1.04999725,-0.53003082,-0.08000732,29.50004273,3.71507199
'2:15.000',1.05997253,-0.53003082,-0.08000732,29.50004273,3.71507199
'2:15.125',1.05997253,-0.53003082,-0.08000732,29.50004273,3.7090441
'2:15.250',1.04999725,-0.53003082,-0.08000732,29.50004273,3.71507199
'2:15.375',1.05997253,-0.53003082,-0.08000732,29.50004273,3.7090441
'2:15.500',1.05997253,-0.53003082,-0.08000732,29.50004273,3.71507199
'2:15.625',1.05997253,-0.53003082,-0.08000732,29.50004273,3.7090441
'2:15.750',1.04999725,-0.53003082,-0.08000732,29.50004273,3.7090441
'2:15.875',1.04999725,-0.53003082,-0.08000732,29.50004273,3.7090441
'2:16.000',1.04999725,-0.52001221,-0.08000732,29.50004273,3.73603467
'2:16.125',1.05997253,-0.53003082,-0.08000732,29.50004273,3.71507199
'2:16.250',1.05997253,-0.53003082,-0.08000732,29.50004273,3.7090441
'2:16.375',1.05997253,-0.53003082,-0.08000732,29.50004273,3.7090441
'2:16.500',1.04999725,-0.53003082,-0.08000732,29.50004273,3.7090441
'2:16.625',1.05997253,-0.53003082,-0.08000732,29.50004273,3.71507199
'2:16.750',1.05997253,-0.53003082,-0.08000732,29.50004273,3.71507199
'2:16.875',1.04999725,-0.52001221,-0.08000732,29.50004273,3.7090441
'2:17.000',1.05997253,-0.53003082,-0.08000732,29.50004273,3.7090441
'2:17.125',1.04999725,-0.53003082,-0.08000732,29.50004273,3.7090441
'2:17.250',1.04999725,-0.53003082,-0.08000732,29.50004273,3.7090441
'2:17.375',1.05997253,-0.53003082,-0.08000732,29.50004273,3.71507199
'2:17.500',1.05997253,-0.53003082,-0.08000732,29.50004273,3.71507199
'2:17.625',1.05997253,-0.53003082,-0.08000732,29.50004273,3.7090441
'2:17.750',1.04999725,-0.53003082,-0.08000732,29.50004273,3.71507199
'2:17.875',1.04999725,-0.53003082,-0.08000732,29.50004273,3.71507199
'2:18.000',1.05997253,-0.53003082,-0.08000732,29.50004273,3.7090441
'2:18.125',1.05997253,-0.53003082,-0.08000732,29.50004273,3.7090441
'2:18.250',1.05997253,-0.53003082,-0.08000732,29.50004273,3.7090441
'2:18.375',1.04999725,-0.53003082,-0.08000732,29.50004273,3.7090441
'2:18.500',1.05997253,-0.53003082,-0.08000732,29.50004273,3.7090441
'2:18.625',1.05997253,-0.53003082,-0.08000732,29.50004273,3.7090441
'2:18.750',1.05997253,-0.53003082,-0.08000732,29.50004273,3.7090441
'2:18.875',1.05997253,-0.53003082,-0.08000732,29.50004273,3.73000678
'2:19.000',1.05997253,-0.52001221,-0.08000732,29.50004273,3.7090441
'2:19.125',1.05997253,-0.53003082,-0.08000732,29.50004273,3.7090441
'2:19.250',1.04999725,-0.52001221,-0.08000732,29.50004273,3.71507199
'2:19.375',1.04999725,-0.53003082,-0.08000732,29.50004273,3.7090441
'2:19.500',1.05997253,-0.53003082,-0.08000732,29.50004273,3.7090441
'2:19.625',1.05997253,-0.53003082,-0.08000732,29.50004273,3.7090441
'2:19.750',1.04999725,-0.53003082,-0.08000732,29.50004273,3.7090441
'2:19.875',1.05997253,-0.53003082,-0.08000732,29.50004273,3.7090441
'2:20.000',1.05997253,-0.53003082,-0.08000732,29.50004273,3.7090441
'2:20.125',1.04999725,-0.53003082,-0.08000732,29.50004273,3.7090441
'2:20.250',1.05997253,-0.52001221,-0.08000732,29.50004273,3.7090441
'2:20.375',1.04999725,-0.53003082,-0.08000732,29.50004273,3.7090441
'2:20.500',1.04999725,-0.53003082,-0.08000732,29.50004273,3.7090441
'2:20.625',1.05997253,-0.53003082,-0.08000732,29.50004273,3.7090441
'2:20.750',1.04999725,-0.53003082,-0.08000732,29.50004273,3.7090441
'2:20.875',1.04999725,-0.53003082,-0.08000732,29.50004273,3.7090441
'2:21.000',1.05997253,-0.53003082,-0.08000732,29.50004273,3.7090441
'2:21.125',1.05997253,-0.53003082,-0.08000732,29.50004273,3.7090441
'2:21.250',1.05997253,-0.53003082,-0.08000732,29.50004273,3.7090441
'2:21.375',1.04999725,-0.53003082,-0.08000732,29.50004273,3.7090441
'2:21.500',1.05997253,-0.53003082,-0.08000732,29.50004273,3.7090441
'2:21.625',1.05997253,-0.53003082,-0.08000732,29.50004273,3.7090441
'2:21.750',1.04999725,-0.53003082,-0.08000732,29.50004273,3.7090441
'2:21.875',1.05997253,-0.53003082,-0.07000641,29.50004273,3.7090441
'2:22.000',1.04999725,-0.53003082,-0.08000732,29.50004273,3.7090441
'2:22.125',1.05997253,-0.53003082,-0.08000732,29.50004273,3.7090441
'2:22.250',1.05997253,-0.53003082,-0.08000732,29.50004273,3.7090441
'2:22.375',1.04999725,-0.53003082,-0.08000732,29.50004273,3.7090441
'2:22.500',1.05997253,-0.53003082,-0.08000732,29.70009156,3.7090441
'2:22.625',1.04999725,-0.53003082,-0.08000732,29.50004273,3.68205353
'2:22.750',1.04999725,-0.53003082,-0.08000732,29.50004273,3.68205353
'2:22.875',1.04999725,-0.53003082,-0.08000732,29.50004273,3.7090441
'2:23.000',1.05997253,-0.53003082,-0.08000732,29.50004273,3.7090441
'2:23.125',1.04999725,-0.53003082,-0.08000732,29.50004273,3.7090441
'2:23.250',1.05997253,-0.53003082,-0.08000732,29.50004273,3.68205353
'2:23.375',1.05997253,-0.53003082,-0.08000732,29.50004273,3.7090441
'2:23.500',1.05997253,-0.53003082,-0.08000732,29.50004273,3.7090441
'2:23.625',1.04999725,-0.53003082,-0.08000732,29.50004273,3.7090441
'2:23.750',1.04999725,-0.53003082,-0.08000732,29.50004273,3.7090441
'2:23.875',1.04999725,-0.53003082,-0.08000732,29.50004273,3.7090441
'2:24.000',1.05997253,-0.53003082,-0.08000732,29.50004273,3.68205353
'2:24.125',1.04999725,-0.53003082,-0.08000732,29.50004273,3.7090441
'2:24.250',1.05997253,-0.53003082,-0.08000732,29.50004273,3.7090441
'2:24.375',1.04999725,-0.53003082,-0.08000732,29.50004273,3.7090441
'2:24.500',1.05997253,-0.53003082,-0.08000732,29.50004273,3.7090441
'2:24.625',1.04999725,-0.53003082,-0.08000732,29.50004273,3.68205353
'2:24.750',1.05997253,-0.53003082,-0.08000732,29.50004273,3.68205353
'2:24.875',1.04999725,-0.53003082,-0.08000732,29.70009156,3.7090441
'2:25.000',1.04999725,-0.53003082,-0.08000732,29.50004273,3.68205353
'2:25.125',1.05997253,-0.53003082,-0.08000732,29.50004273,3.68205353
'2:25.250',1.04999725,-0.53003082,-0.08000732,29.50004273,3.7090441
'2:25.375',1.04999725,-0.53003082,-0.08000732,29.50004273,3.7090441
'2:25.500',1.05997253,-0.53003082,-0.08000732,29.50004273,3.68205353
'2:25.625',1.04999725,-0.53003082,-0.08000732,29.50004273,3.68205353
'2:25.750',1.04999725,-0.53003082,-0.08000732,29.50004273,3.68205353
'2:25.875',1.05997253,-0.53003082,-0.08000732,29.50004273,3.7090441
'2:26.000',1.04999725,-0.53003082,-0.08000732,29.70009156,3.68205353
'2:26.125',1.04999725,-0.53003082,-0.08000732,29.50004273,3.68205353
'2:26.250',1.04999725,-0.53003082,-0.08000732,29.50004273,3.7090441
'2:26.375',1.05997253,-0.53003082,-0.08000732,29.50004273,3.68205353
'2:26.500',1.05997253,-0.53003082,-0.08000732,29.50004273,3.68205353
'2:26.625',1.04999725,-0.53003082,-0.08000732,29.50004273,3.7090441
'2:26.750',1.04999725,-0.53003082,-0.08000732,29.50004273,3.68205353
'2:26.875',1.05997253,-0.53003082,-0.08000732,29.50004273,3.68205353
'2:27.000',1.05997253,-0.53003082,-0.08000732,29.70009156,3.7090441
'2:27.125',1.04999725,-0.53003082,-0.08000732,29.50004273,3.68205353
'2:27.250',1.05997253,-0.53003082,-0.08000732,29.70009156,3.68205353
'2:27.375',1.05997253,-0.53003082,-0.08000732,29.70009156,3.68205353
'2:27.500',1.04999725,-0.53003082,-0.08000732,29.50004273,3.68205353
'2:27.625',1.05997253,-0.53003082,-0.08000732,29.70009156,3.68205353
'2:27.750',1.05997253,-0.53003082,-0.08000732,29.70009156,3.7090441
'2:27.875',1.05997253,-0.53003082,-0.08000732,29.70009156,3.68205353
'2:28.000',1.05997253,-0.52001221,-0.08000732,29.50004273,3.68205353
'2:28.125',1.05997253,-0.53003082,-0.08000732,29.50004273,3.68205353
'2:28.250',1.04999725,-0.53003082,-0.08000732,29.70009156,3.68205353
'2:28.375',1.04999725,-0.53003082,-0.08000732,29.50004273,3.67602564
'2:28.500',1.05997253,-0.53003082,-0.08000732,29.70009156,3.68205353
'2:28.625',1.05997253,-0.53003082,-0.08000732,29.70009156,3.68205353
'2:28.750',1.05997253,-0.53003082,-0.08000732,29.70009156,3.67602564
'2:28.875',1.04999725,-0.53003082,-0.08000732,29.50004273,3.68205353
'2:29.000',1.05997253,-0.53003082,-0.08000732,29.70009156,3.68205353
'2:29.125',1.04999725,-0.52001221,-0.08000732,29.50004273,3.68205353
'2:29.250',1.04999725,-0.53003082,-0.08000732,29.70009156,3.7090441
'2:29.375',1.05997253,-0.53003082,-0.08000732,29.70009156,3.7090441
'2:29.500',1.04999725,-0.53003082,-0.08000732,29.70009156,3.68205353
'2:29.625',1.04999725,-0.53003082,-0.08000732,29.70009156,3.68205353
'2:29.750',1.04999725,-0.53003082,-0.08000732,29.70009156,3.68205353
'2:29.875',1.05997253,-0.53003082,-0.08000732,29.70009156,3.68205353
'2:30.000',1.04999725,-0.53003082,-0.08000732,29.70009156,3.68205353
'2:30.125',1.05997253,-0.53003082,-0.08000732,29.70009156,3.68205353
'2:30.250',1.05997253,-0.53003082,-0.08000732,29.50004273,3.7090441
'2:30.375',1.05997253,-0.53003082,-0.08000732,29.70009156,3.68205353
'2:30.500',1.04999725,-0.53003082,-0.08000732,29.70009156,3.68205353
'2:30.625',1.05997253,-0.53003082,-0.08000732,29.70009156,3.67602564
'2:30.750',1.05997253,-0.53003082,-0.08000732,29.70009156,3.67602564
'2:30.875',1.04999725,-0.53003082,-0.08000732,29.50004273,3.67602564
'2:31.000',1.05997253,-0.53003082,-0.08000732,29.70009156,3.67602564
'2:31.125',1.05997253,-0.53003082,-0.08000732,29.70009156,3.67602564
'2:31.250',1.04999725,-0.53003082,-0.08000732,29.70009156,3.67602564
'2:31.375',1.05997253,-0.53003082,-0.08000732,29.70009156,3.67602564
'2:31.500',1.05997253,-0.53003082,-0.08000732,29.70009156,3.67602564
'2:31.625',1.04999725,-0.53003082,-0.08000732,29.70009156,3.69707828
'2:31.750',1.05997253,-0.53003082,-0.08000732,29.50004273,3.67602564
'2:31.875',1.04999725,-0.53003082,-0.08000732,29.70009156,3.67602564
'2:32.000',1.05997253,-0.53003082,-0.08000732,29.70009156,3.67602564
'2:32.125',1.05997253,-0.53003082,-0.08000732,29.70009156,3.67602564
'2:32.250',1.05997253,-0.53003082,-0.08000732,29.70009156,3.67602564
'2:32.375',1.04999725,-0.53003082,-0.08000732,29.70009156,3.67602564
'2:32.500',1.05997253,-0.53003082,-0.08000732,29.70009156,3.67602564
'2:32.625',1.05997253,-0.53003082,-0.08000732,29.70009156,3.67602564
'2:32.750',1.05997253,-0.52001221,-0.08000732,29.70009156,3.67602564
'2:32.875',1.05997253,-0.53003082,-0.08000732,29.70009156,3.67602564
'2:33.000',1.05997253,-0.53003082,-0.08000732,29.70009156,3.67602564
'2:33.125',1.04999725,-0.53003082,-0.08000732,29.70009156,3.67602564
'2:33.250',1.05997253,-0.53003082,-0.08000732,29.70009156,3.67602564
'2:33.375',1.04999725,-0.53003082,-0.08000732,29.70009156,3.67602564
'2:33.500',1.05997253,-0.53003082,-0.08000732,29.70009156,3.67602564
'2:33.625',1.04999725,-0.53003082,-0.08000732,29.70009156,3.67602564
'2:33.750',1.05997253,-0.53003082,-0.08000732,29.70009156,3.67602564
'2:33.875',1.04999725,-0.53003082,-0.08000732,29.70009156,3.67602564
'2:34.000',1.05997253,-0.53003082,-0.08000732,29.70009156,3.67602564
'2:34.125',1.05997253,-0.53003082,-0.08000732,29.70009156,3.67602564
'2:34.250',1.05997253,-0.53003082,-0.08000732,29.70009156,3.67602564
'2:34.375',1.05997253,-0.53003082,-0.08000732,29.70009156,3.67602564
'2:34.500',1.05997253,-0.53003082,-0.08000732,29.70009156,3.67602564
'2:34.625',1.04999725,-0.53003082,-0.08000732,29.70009156,3.67602564
'2:34.750',1.05997253,-0.53003082,-0.08000732,29.70009156,3.67602564
'2:34.875',1.04999725,-0.53003082,-0.08000732,29.70009156,3.67602564
'2:35.000',1.04999725,-0.53003082,-0.08000732,29.70009156,3.67602564
'2:35.125',1.05997253,-0.53003082,-0.08000732,29.70009156,3.67602564
'2:35.250',1.05997253,-0.53003082,-0.08000732,29.70009156,3.67602564
'2:35.375',1.05997253,-0.53003082,-0.08000732,29.70009156,3.67602564
'2:35.500',1.04999725,-0.53003082,-0.08000732,29.70009156,3.67602564
'2:35.625',1.04999725,-0.53003082,-0.08000732,29.70009156,3.67602564
'2:35.750',1.04999725,-0.53003082,-0.08000732,29.70009156,3.67602564
'2:35.875',1.05997253,-0.53003082,-0.08000732,29.70009156,3.69707828
'2:36.000',1.04999725,-0.53003082,-0.08000732,29.70009156,3.67602564
'2:36.125',1.05997253,-0.53003082,-0.08000732,29.70009156,3.67602564
'2:36.250',1.05997253,-0.53003082,-0.08000732,29.70009156,3.67602564
'2:36.375',1.05997253,-0.53003082,-0.08000732,29.70009156,3.67602564
'2:36.500',1.04999725,-0.53003082,-0.08000732,29.70009156,3.67602564
'2:36.625',1.04999725,-0.53003082,-0.08000732,29.70009156,3.67602564
'2:36.750',1.05997253,-0.53003082,-0.08000732,29.70009156,3.67602564
'2:36.875',1.04999725,-0.53003082,-0.08000732,29.70009156,3.67602564
'2:37.000',1.05997253,-0.53003082,-0.08000732,29.70009156,3.67602564
'2:37.125',1.04999725,-0.52001221,-0.08000732,29.70009156,3.67602564
'2:37.250',1.04999725,-0.53003082,-0.08000732,29.70009156,3.67602564
'2:37.375',1.05997253,-0.53003082,-0.08000732,29.70009156,3.67602564
'2:37.500',1.04999725,-0.53003082,-0.08000732,29.70009156,3.67602564
'2:37.625',1.04999725,-0.53003082,-0.08000732,29.70009156,3.67602564
'2:37.750',1.05997253,-0.53003082,-0.08000732,29.70009156,3.67602564
'2:37.875',1.05997253,-0.53003082,-0.08000732,29.70009156,3.67602564
'2:38.000',1.05997253,-0.53003082,-0.08000732,29.70009156,3.67602564
'2:38.125',1.05997253,-0.53003082,-0.08000732,29.70009156,3.67602564
'2:38.250',1.05997253,-0.53003082,-0.08000732,29.70009156,3.67602564
'2:38.375',1.04999725,-0.52001221,-0.08000732,29.70009156,3.67602564
'2:38.500',1.04999725,-0.53003082,-0.07000641,29.70009156,3.67602564
'2:38.625',1.04999725,-0.53003082,-0.08000732,29.70009156,3.67602564
'2:38.750',1.04999725,-0.53003082,-0.08000732,29.70009156,3.67602564
'2:38.875',1.05997253,-0.53003082,-0.08000732,29.70009156,3.67602564
'2:39.000',1.05997253,-0.53003082,-0.08000732,29.70009156,3.64903507
'2:39.125',1.05997253,-0.53003082,-0.08000732,29.70009156,3.67602564
'2:39.250',1.05997253,-0.52001221,-0.08000732,29.70009156,3.67602564
'2:39.375',1.04999725,-0.53003082,-0.08000732,29.70009156,3.67602564
'2:39.500',1.04999725,-0.53003082,-0.08000732,29.70009156,3.67602564
'2:39.625',1.05997253,-0.53003082,-0.08000732,29.70009156,3.64903507
'2:39.750',1.04999725,-0.53003082,-0.08000732,29.70009156,3.64903507
'2:39.875',1.05997253,-0.53003082,-0.08000732,29.70009156,3.64903507
'2:40.000',1.05997253,-0.52001221,-0.08000732,29.70009156,3.64903507
'2:40.125',1.05997253,-0.52001221,-0.08000732,29.70009156,3.64903507
'2:40.250',1.04999725,-0.53003082,-0.08000732,29.70009156,3.64903507
'2:40.375',1.04999725,-0.53003082,-0.08000732,29.70009156,3.64903507
'2:40.500',1.04999725,-0.53003082,-0.07000641,29.70009156,3.64903507
'2:40.625',1.04999725,-0.53003082,-0.08000732,29.70009156,3.64903507
'2:40.750',1.04999725,-0.53003082,-0.08000732,29.70009156,3.64903507
'2:40.875',1.05997253,-0.53003082,-0.08000732,29.70009156,3.64903507
'2:41.000',1.05997253,-0.53003082,-0.08000732,29.70009156,3.64903507
'2:41.125',1.05997253,-0.53003082,-0.08000732,29.70009156,3.64903507
'2:41.250',1.05997253,-0.53003082,-0.08000732,29.70009156,3.64903507
'2:41.375',1.04999725,-0.53003082,-0.08000732,29.70009156,3.64903507
'2:41.500',1.04999725,-0.53003082,-0.08000732,29.70009156,3.67602564
'2:41.625',1.04999725,-0.53003082,-0.08000732,29.70009156,3.64903507
'2:41.750',1.05997253,-0.53003082,-0.08000732,29.70009156,3.64903507
'2:41.875',1.05997253,-0.53003082,-0.08000732,29.70009156,3.64903507
'2:42.000',1.04999725,-0.53003082,-0.08000732,29.70009156,3.64903507
'2:42.125',1.04999725,-0.52001221,-0.08000732,29.70009156,3.64903507
'2:42.250',1.05997253,-0.53003082,-0.08000732,29.70009156,3.64903507
'2:42.375',1.05997253,-0.53003082,-0.08000732,29.70009156,3.64903507
'2:42.500',1.05997253,-0.52001221,-0.08000732,29.70009156,3.64903507
'2:42.625',1.04999725,-0.53003082,-0.08000732,29.70009156,3.64903507
'2:42.750',1.05997253,-0.53003082,-0.08000732,29.70009156,3.64903507
'2:42.875',1.04999725,-0.53003082,-0.08000732,29.70009156,3.64903507
'2:43.000',1.05997253,-0.53003082,-0.08000732,29.70009156,3.64903507
'2:43.125',1.04999725,-0.53003082,-0.08000732,29.70009156,3.64903507
'2:43.250',1.05997253,-0.53003082,-0.08000732,29.70009156,3.64903507
'2:43.375',1.05997253,-0.53003082,-0.08000732,29.70009156,3.64903507
'2:43.500',1.04999725,-0.52001221,-0.08000732,29.70009156,3.64903507
'2:43.625',1.05997253,-0.53003082,-0.08000732,29.70009156,3.64903507
'2:43.750',1.05997253,-0.53003082,-0.08000732,29.70009156,3.64903507
'2:43.875',1.04999725,-0.53003082,-0.08000732,29.70009156,3.64903507
'2:44.000',1.05997253,-0.53003082,-0.08000732,29.70009156,3.64903507
'2:44.125',1.05997253,-0.53003082,-0.08000732,29.70009156,3.64903507
'2:44.250',1.04999725,-0.53003082,-0.08000732,29.70009156,3.64903507
'2:44.375',1.04999725,-0.53003082,-0.08000732,29.70009156,3.64903507
'2:44.500',1.05997253,-0.53003082,-0.08000732,29.70009156,3.64903507
'2:44.625',1.05997253,-0.53003082,-0.08000732,29.70009156,3.64903507
'2:44.750',1.04999725,-0.52001221,-0.08000732,29.70009156,3.64903507
'2:44.875',1.05997253,-0.53003082,-0.08000732,29.70009156,3.64903507
'2:45.000',1.05997253,-0.53003082,-0.08000732,29.70009156,3.67602564
'2:45.125',1.05997253,-0.53003082,-0.08000732,29.70009156,3.64903507
'2:45.250',1.05997253,-0.53003082,-0.08000732,29.70009156,3.64903507
'2:45.375',1.04999725,-0.53003082,-0.08000732,29.70009156,3.64903507
'2:45.500',1.05997253,-0.53003082,-0.08000732,29.9000351,3.64903507
'2:45.625',1.05997253,-0.53003082,-0.08000732,29.70009156,3.64903507
'2:45.750',1.05997253,-0.53003082,-0.08000732,29.9000351,3.64903507
'2:45.875',1.04999725,-0.53003082,-0.08000732,29.70009156,3.64903507
'2:46.000',1.05997253,-0.53003082,-0.08000732,29.70009156,3.64903507
'2:46.125',1.05997253,-0.53003082,-0.08000732,29.70009156,3.64903507
'2:46.250',1.05997253,-0.53003082,-0.08000732,29.70009156,3.64903507
'2:46.375',1.05997253,-0.53003082,-0.08000732,29.9000351,3.64903507
'2:46.500',1.05997253,-0.53003082,-0.08000732,29.9000351,3.64903507
'2:46.625',1.04999725,-0.53003082,-0.08000732,29.70009156,3.64903507
'2:46.750',1.04999725,-0.53003082,-0.08000732,29.70009156,3.64903507
'2:46.875',1.04999725,-0.53003082,-0.08000732,29.70009156,3.64903507
'2:47.000',1.05997253,-0.53003082,-0.08000732,29.70009156,3.64903507
'2:47.125',1.05997253,-0.53003082,-0.08000732,29.70009156,3.64903507
'2:47.250',1.04999725,-0.53003082,-0.08000732,29.70009156,3.64903507
'2:47.375',1.05997253,-0.53003082,-0.08000732,29.70009156,3.64903507
'2:47.500',1.05997253,-0.53003082,-0.08000732,29.70009156,3.64903507
'2:47.625',1.05997253,-0.53003082,-0.08000732,29.9000351,3.64903507
'2:47.750',1.04999725,-0.53003082,-0.08000732,29.70009156,3.64903507
'2:47.875',1.04999725,-0.53003082,-0.08000732,29.70009156,3.64903507
'2:48.000',1.05997253,-0.53003082,-0.08000732,29.70009156,3.64903507
'2:48.125',1.05997253,-0.53003082,-0.08000732,29.70009156,3.64903507
'2:48.250',1.05997253,-0.53003082,-0.08000732,29.70009156,3.64903507
'2:48.375',1.04999725,-0.53003082,-0.08000732,29.70009156,3.64903507
'2:48.500',1.04999725,-0.53003082,-0.08000732,29.70009156,3.64903507
'2:48.625',1.05997253,-0.53003082,-0.08000732,29.9000351,3.64903507
'2:48.750',1.05997253,-0.53003082,-0.07000641,29.70009156,3.64903507
'2:48.875',1.04999725,-0.53003082,-0.08000732,29.70009156,3.64903507
'2:49.000',1.04999725,-0.53003082,-0.08000732,29.70009156,3.64903507
'2:49.125',1.04999725,-0.53003082,-0.08000732,29.70009156,3.64903507
'2:49.250',1.05997253,-0.53003082,-0.08000732,29.9000351,3.64903507
'2:49.375',1.04999725,-0.52001221,-0.08000732,29.70009156,3.64903507
'2:49.500',1.05997253,-0.53003082,-0.08000732,29.70009156,3.64903507
'2:49.625',1.04999725,-0.52001221,-0.08000732,29.9000351,3.64903507
'2:49.750',1.05997253,-0.52001221,-0.08000732,29.9000351,3.64903507
'2:49.875',1.04999725,-0.53003082,-0.08000732,29.9000351,3.64903507
'2:50.000',1.05997253,-0.53003082,-0.08000732,29.70009156,3.64903507
'2:50.125',1.05997253,-0.53003082,-0.08000732,29.9000351,3.64903507
'2:50.250',1.05997253,-0.53003082,-0.08000732,29.9000351,3.64903507
'2:50.375',1.04999725,-0.53003082,-0.08000732,29.70009156,3.64903507
'2:50.500',1.04999725,-0.53003082,-0.08000732,29.9000351,3.64903507
'2:50.625',1.05997253,-0.52001221,-0.08000732,29.70009156,3.64903507
'2:50.750',1.05997253,-0.53003082,-0.08000732,29.9000351,3.64903507
'2:50.875',1.04999725,-0.53003082,-0.08000732,29.9000351,3.64903507
'2:51.000',1.04999725,-0.53003082,-0.08000732,29.70009156,3.64903507
'2:51.125',1.04999725,-0.53003082,-0.08000732,29.70009156,3.64903507
'2:51.250',1.05997253,-0.53003082,-0.08000732,29.70009156,3.64903507
'2:51.375',1.05997253,-0.53003082,-0.08000732,29.70009156,3.64903507
'2:51.500',1.06998383,-0.52001221,-0.08000732,29.9000351,3.64903507
'2:51.625',1.04999725,-0.53003082,-0.08000732,29.9000351,3.64903507
'2:51.750',1.04999725,-0.53003082,-0.08000732,29.70009156,3.64903507
'2:51.875',1.04999725,-0.53003082,-0.08000732,29.9000351,3.64903507
'2:52.000',1.05997253,-0.53003082,-0.08000732,29.9000351,3.64903507
'2:52.125',1.05997253,-0.53003082,-0.08000732,29.9000351,3.64903507
'2:52.250',1.05997253,-0.53003082,-0.08000732,29.70009156,3.64903507
'2:52.375',1.04999725,-0.53003082,-0.08000732,29.9000351,3.64903507
'2:52.500',1.04999725,-0.53003082,-0.08000732,29.9000351,3.64903507
'2:52.625',1.05997253,-0.53003082,-0.08000732,29.9000351,3.64300717
'2:52.750',1.05997253,-0.53003082,-0.08000732,29.70009156,3.64903507
'2:52.875',1.05997253,-0.53003082,-0.08000732,29.9000351,3.64903507
'2:53.000',1.05997253,-0.53003082,-0.08000732,29.9000351,3.64903507
'2:53.125',1.05997253,-0.53003082,-0.08000732,29.9000351,3.64903507
'2:53.250',1.05997253,-0.53003082,-0.08000732,29.70009156,3.64903507
'2:53.375',1.05997253,-0.53003082,-0.08000732,29.9000351,3.64300717
'2:53.500',1.05997253,-0.53003082,-0.08000732,29.70009156,3.64300717
'2:53.625',1.04999725,-0.53003082,-0.08000732,29.9000351,3.64903507
'2:53.750',1.05997253,-0.53003082,-0.08000732,29.70009156,3.64903507
'2:53.875',1.05997253,-0.52001221,-0.08000732,29.9000351,3.64903507
'2:54.000',1.04999725,-0.52001221,-0.08000732,29.9000351,3.64903507
'2:54.125',1.05997253,-0.53003082,-0.08000732,29.9000351,3.64903507
'2:54.250',1.05997253,-0.52001221,-0.08000732,29.9000351,3.64300717
'2:54.375',1.05997253,-0.52001221,-0.08000732,29.9000351,3.64903507
'2:54.500',1.05997253,-0.50001038,-0.14001282,29.70009156,3.64903507
'2:54.625',1.05997253,-0.52001221,-0.08000732,29.70009156,3.64300717
'2:54.750',1.05997253,-0.52001221,-0.08000732,29.9000351,3.64903507
'2:54.875',1.05997253,-0.52001221,-0.08000732,29.9000351,3.64903507
'2:55.000',1.05997253,-0.52001221,-0.08000732,29.9000351,3.61700626
'2:55.125',1.05997253,-0.53003082,-0.08000732,29.70009156,3.64300717
'2:55.250',1.05997253,-0.53003082,-0.08000732,29.9000351,3.64300717
'2:55.375',1.05997253,-0.53003082,-0.08000732,29.9000351,3.64300717
'2:55.500',1.04999725,-0.53003082,-0.07000641,29.9000351,3.64300717
'2:55.625',1.05997253,-0.53003082,-0.08000732,29.9000351,3.61700626
'2:55.750',1.04999725,-0.52001221,-0.08000732,29.9000351,3.64300717
'2:55.875',1.05997253,-0.52001221,-0.08000732,29.9000351,3.64300717
'2:56.000',1.04999725,-0.53003082,-0.08000732,29.9000351,3.61700626
'2:56.125',1.04999725,-0.52001221,-0.08000732,29.70009156,3.64300717
'2:56.250',1.05997253,-0.52001221,-0.08000732,29.9000351,3.64300717
'2:56.375',1.05997253,-0.53003082,-0.08000732,29.9000351,3.64300717
'2:56.500',1.05997253,-0.53003082,-0.08000732,29.9000351,3.61700626
'2:56.625',1.05997253,-0.52001221,-0.08000732,29.9000351,3.61700626
'2:56.750',1.05997253,-0.52001221,-0.08000732,29.9000351,3.64300717
'2:56.875',1.05997253,-0.53003082,-0.08000732,29.9000351,3.61700626
'2:57.000',1.04999725,-0.53003082,-0.08000732,29.9000351,3.61700626
'2:57.125',1.05997253,-0.52001221,-0.08000732,29.9000351,3.64300717
'2:57.250',1.05997253,-0.53003082,-0.08000732,29.9000351,3.61700626
'2:57.375',1.04999725,-0.53003082,-0.08000732,29.9000351,3.64300717
'2:57.500',1.04999725,-0.53003082,-0.08000732,29.9000351,3.64300717
'2:57.625',1.05997253,-0.53003082,-0.08000732,29.9000351,3.64300717
'2:57.750',1.04999725,-0.53003082,-0.08000732,29.9000351,3.64300717
'2:57.875',1.05997253,-0.52001221,-0.08000732,29.9000351,3.61700626
'2:58.000',1.05997253,-0.53003082,-0.08000732,29.9000351,3.64300717
'2:58.125',1.05997253,-0.52001221,-0.08000732,29.9000351,3.61700626
'2:58.250',1.05997253,-0.53003082,-0.08000732,29.9000351,3.61700626
'2:58.375',1.05997253,-0.52001221,-0.08000732,29.70009156,3.61700626
'2:58.500',1.05997253,-0.52001221,-0.08000732,29.9000351,3.61700626
'2:58.625',1.04999725,-0.52001221,-0.08000732,29.9000351,3.61700626
'2:58.750',1.05997253,-0.52001221,-0.08000732,29.9000351,3.61700626
'2:58.875',1.05997253,-0.52001221,-0.08000732,29.9000351,3.61700626
'2:59.000',1.04999725,-0.52001221,-0.08000732,29.9000351,3.61700626
'2:59.125',1.04999725,-0.52001221,-0.08000732,29.9000351,3.61700626
'2:59.250',1.05997253,-0.52001221,-0.08000732,29.9000351,3.61700626
'2:59.375',1.05997253,-0.52001221,-0.08000732,29.9000351,3.61700626
'2:59.500',1.05997253,-0.52001221,-0.08000732,29.9000351,3.61700626
'2:59.625',1.05997253,-0.52001221,-0.08000732,29.9000351,3.61700626
'2:59.750',1.05997253,-0.53003082,-0.08000732,29.9000351,3.61700626
'2:59.875',1.04999725,-0.53003082,-0.08000732,29.9000351,3.61700626
'3:00.000',1.05997253,-0.53003082,-0.08000732,29.9000351,3.61700626
'3:00.125',1.04999725,-0.53003082,-0.08000732,29.9000351,3.61700626
'3:00.250',1.05997253,-0.52001221,-0.08000732,29.9000351,3.61700626
'3:00.375',1.05997253,-0.52001221,-0.08000732,29.9000351,3.61700626
'3:00.500',1.04999725,-0.53003082,-0.08000732,29.70009156,3.61700626
'3:00.625',1.05997253,-0.53003082,-0.08000732,29.9000351,3.61700626
'3:00.750',1.05997253,-0.53003082,-0.08000732,29.9000351,3.61700626
'3:00.875',1.05997253,-0.53003082,-0.08000732,29.9000351,3.61700626
'3:01.000',1.04999725,-0.52001221,-0.08000732,29.9000351,3.61700626
'3:01.125',1.05997253,-0.53003082,-0.08000732,29.9000351,3.61700626
'3:01.250',1.04999725,-0.53003082,-0.08000732,29.9000351,3.61106833
'3:01.375',1.04999725,-0.52001221,-0.08000732,29.9000351,3.61700626
'3:01.500',1.05997253,-0.53003082,-0.08000732,29.9000351,3.61700626
'3:01.625',1.05997253,-0.52001221,-0.08000732,29.9000351,3.61700626
'3:01.750',1.05997253,-0.52001221,-0.08000732,29.9000351,3.61700626
'3:01.875',1.04999725,-0.53003082,-0.08000732,29.9000351,3.61106833
'3:02.000',1.05997253,-0.52001221,-0.08000732,29.9000351,3.61106833
'3:02.125',1.04999725,-0.52001221,-0.08000732,29.9000351,3.61106833
'3:02.250',1.05997253,-0.53003082,-0.08000732,29.9000351,3.61106833
'3:02.375',1.04999725,-0.53003082,-0.08000732,29.9000351,3.61106833
'3:02.500',1.05997253,-0.52001221,-0.08000732,29.9000351,3.61106833
'3:02.625',1.05997253,-0.52001221,-0.08000732,29.9000351,3.58506742
'3:02.750',1.05997253,-0.52001221,-0.08000732,29.9000351,3.61106833
'3:02.875',1.05997253,-0.53003082,-0.08000732,29.9000351,3.61106833
'3:03.000',1.05997253,-0.52001221,-0.08000732,29.9000351,3.61106833
'3:03.125',1.05997253,-0.52001221,-0.08000732,29.9000351,3.61106833
'3:03.250',1.05997253,-0.52001221,-0.08000732,29.9000351,3.61106833
'3:03.375',1.04999725,-0.53003082,-0.08000732,29.9000351,3.61106833
'3:03.500',1.05997253,-0.53003082,-0.08000732,29.9000351,3.58506742
'3:03.625',1.05997253,-0.52001221,-0.08000732,29.9000351,3.61106833
'3:03.750',1.05997253,-0.53003082,-0.08000732,29.9000351,3.61106833
'3:03.875',1.05997253,-0.52001221,-0.08000732,29.9000351,3.58506742
'3:04.000',1.05997253,-0.52001221,-0.08000732,29.9000351,3.58506742
'3:04.125',1.05997253,-0.53003082,-0.08000732,29.9000351,3.58506742
'3:04.250',1.04999725,-0.53003082,-0.08000732,29.9000351,3.58506742
'3:04.375',1.04999725,-0.53003082,-0.08000732,29.9000351,3.58506742
'3:04.500',1.05997253,-0.53003082,-0.08000732,29.9000351,3.61106833
'3:04.625',1.04999725,-0.53003082,-0.08000732,29.9000351,3.61106833
'3:04.750',1.04999725,-0.53003082,-0.08000732,29.9000351,3.61106833
'3:04.875',1.05997253,-0.52001221,-0.08000732,29.9000351,3.58506742
'3:05.000',1.05997253,-0.53003082,-0.08000732,29.9000351,3.58506742
'3:05.125',1.05997253,-0.52001221,-0.08000732,29.9000351,3.58506742
'3:05.250',1.04999725,-0.52001221,-0.08000732,29.9000351,3.58506742
'3:05.375',1.05997253,-0.52001221,-0.08000732,29.9000351,3.58506742
'3:05.500',1.05997253,-0.53003082,-0.07000641,29.9000351,3.58506742
'3:05.625',1.04999725,-0.52001221,-0.08000732,29.9000351,3.58506742
'3:05.750',1.04999725,-0.52001221,-0.08000732,29.9000351,3.58506742
'3:05.875',1.05997253,-0.52001221,-0.08000732,29.9000351,3.58506742
'3:06.000',1.05997253,-0.52001221,-0.08000732,29.9000351,3.58506742
'3:06.125',1.05997253,-0.52001221,-0.08000732,29.9000351,3.58506742
'3:06.250',1.04999725,-0.53003082,-0.08000732,29.9000351,3.58506742
'3:06.375',1.05997253,-0.52001221,-0.08000732,29.9000351,3.58506742
'3:06.500',1.05997253,-0.52001221,-0.08000732,29.9000351,3.58506742
'3:06.625',1.05997253,-0.52001221,-0.08000732,29.9000351,3.58506742
'3:06.750',1.05997253,-0.52001221,-0.08000732,29.9000351,3.58506742
'3:06.875',1.05997253,-0.52001221,-0.08000732,29.9000351,3.58506742
'3:07.000',1.05997253,-0.52001221,-0.08000732,29.9000351,3.58506742
'3:07.125',1.05997253,-0.52001221,-0.08000732,29.9000351,3.57903952
'3:07.250',1.05997253,-0.52001221,-0.08000732,29.9000351,3.58506742
'3:07.375',1.05997253,-0.52001221,-0.08000732,29.9000351,3.58506742
'3:07.500',1.05997253,-0.53003082,-0.08000732,29.9000351,3.58506742
'3:07.625',1.05997253,-0.52001221,-0.08000732,29.9000351,3.58506742
'3:07.750',1.05997253,-0.53003082,-0.08000732,29.9000351,3.57903952
'3:07.875',1.05997253,-0.53003082,-0.08000732,29.9000351,3.58506742
'3:08.000',1.05997253,-0.52001221,-0.08000732,29.9000351,3.57903952
'3:08.125',1.05997253,-0.52001221,-0.08000732,29.9000351,3.58506742
'3:08.250',1.05997253,-0.52001221,-0.08000732,29.9000351,3.58506742
'3:08.375',1.05997253,-0.53003082,-0.08000732,29.9000351,3.57903952
'3:08.500',1.05997253,-0.52001221,-0.08000732,29.9000351,3.58506742
'3:08.625',1.05997253,-0.52001221,-0.08000732,29.9000351,3.58506742
'3:08.750',1.05997253,-0.53003082,-0.08000732,29.9000351,3.58506742
'3:08.875',1.05997253,-0.53003082,-0.08000732,29.9000351,3.58506742
'3:09.000',1.05997253,-0.53003082,-0.08000732,29.9000351,3.58506742
'3:09.125',1.05997253,-0.52001221,-0.08000732,29.9000351,3.57903952
'3:09.250',1.05997253,-0.52001221,-0.08000732,29.9000351,3.57903952
'3:09.375',1.04999725,-0.52001221,-0.08000732,29.9000351,3.57903952
'3:09.500',1.05997253,-0.52001221,-0.08000732,29.9000351,3.58506742
'3:09.625',1.05997253,-0.52001221,-0.08000732,30.10008393,3.57903952
'3:09.750',1.05997253,-0.53003082,-0.09000824,30.10008393,3.57903952
'3:09.875',1.05997253,-0.53003082,-0.08000732,30.10008393,3.6000022
'3:10.000',1.02997467,-0.53003082,-0.09000824,30.10008393,3.58506742
'3:10.125',1.05997253,-0.52001221,-0.08000732,30.10008393,3.57903952
'3:10.250',1.03998596,-0.53003082,-0.09000824,29.9000351,3.59406427
'3:10.375',1.05997253,-0.52001221,-0.08000732,29.9000351,3.58506742
'3:10.500',1.04999725,-0.53003082,-0.08000732,29.9000351,3.6000022
'3:10.625',1.05997253,-0.52001221,-0.08000732,29.9000351,3.6000022
'3:10.750',1.04999725,-0.52001221,-0.08000732,29.9000351,3.6000022
'3:10.875',1.05997253,-0.52001221,-0.08000732,29.9000351,3.57903952
'3:11.000',1.04999725,-0.53003082,-0.08000732,29.9000351,3.6000022
'3:11.125',1.04999725,-0.53003082,-0.08000732,29.9000351,3.57903952
'3:11.250',1.04999725,-0.53003082,-0.08000732,29.9000351,3.57903952
'3:11.375',1.05997253,-0.53003082,-0.08000732,29.9000351,3.57903952
'3:11.500',1.05997253,-0.53003082,-0.08000732,29.9000351,3.57903952
'3:11.625',1.05997253,-0.53003082,-0.08000732,29.9000351,3.57903952
'3:11.750',1.05997253,-0.53003082,-0.08000732,29.9000351,3.57903952
'3:11.875',1.04999725,-0.53003082,-0.08000732,29.9000351,3.57903952
'3:12.000',1.04999725,-0.53003082,-0.08000732,29.9000351,3.58506742
'3:12.125',1.05997253,-0.52001221,-0.08000732,29.9000351,3.57903952
'3:12.250',1.04999725,-0.53003082,-0.08000732,29.9000351,3.60504044
'3:12.375',1.05997253,-0.53003082,-0.08000732,29.9000351,3.58506742
'3:12.500',1.05997253,-0.52001221,-0.08000732,29.9000351,3.58506742
'3:12.625',1.05997253,-0.53003082,-0.08000732,29.9000351,3.58506742
'3:12.750',1.05997253,-0.53003082,-0.08000732,29.9000351,3.58506742
'3:12.875',1.04999725,-0.53003082,-0.08000732,29.9000351,3.58506742
'3:13.000',1.05997253,-0.53003082,-0.08000732,29.9000351,3.58506742
'3:13.125',1.05997253,-0.52001221,-0.08000732,29.9000351,3.58506742
'3:13.250',1.05997253,-0.52001221,-0.08000732,29.9000351,3.58506742
'3:13.375',1.05997253,-0.52001221,-0.08000732,29.9000351,3.58506742
'3:13.500',1.05997253,-0.52001221,-0.08000732,29.9000351,3.58506742
'3:13.625',1.05997253,-0.53003082,-0.08000732,29.9000351,3.58506742
'3:13.750',1.04999725,-0.52001221,-0.08000732,29.9000351,3.58506742
'3:13.875',1.05997253,-0.53003082,-0.07000641,29.9000351,3.58506742
'3:14.000',1.05997253,-0.53003082,-0.08000732,29.9000351,3.57903952
'3:14.125',1.05997253,-0.53003082,-0.08000732,29.9000351,3.58506742
'3:14.250',1.04999725,-0.52001221,-0.08000732,29.9000351,3.58506742
'3:14.375',1.05997253,-0.53003082,-0.08000732,29.9000351,3.58506742
'3:14.500',1.05997253,-0.53003082,-0.08000732,29.9000351,3.6000022
'3:14.625',1.05997253,-0.53003082,-0.08000732,29.9000351,3.57903952
'3:14.750',1.05997253,-0.52001221,-0.08000732,29.9000351,3.58506742
'3:14.875',1.05997253,-0.53003082,-0.08000732,29.9000351,3.57903952
'3:15.000',1.05997253,-0.53003082,-0.08000732,29.9000351,3.57903952
'3:15.125',1.05997253,-0.53003082,-0.08000732,29.9000351,3.6000022
'3:15.250',1.04999725,-0.53003082,-0.08000732,29.9000351,3.57903952
'3:15.375',1.04999725,-0.53003082,-0.08000732,29.9000351,3.55303861
'3:15.500',1.05997253,-0.52001221,-0.08000732,29.9000351,3.57903952
'3:15.625',1.05997253,-0.53003082,-0.08000732,29.9000351,3.57903952
'3:15.750',1.05997253,-0.53003082,-0.08000732,29.9000351,3.57903952
'3:15.875',1.05997253,-0.53003082,-0.08000732,29.9000351,3.57903952
'3:16.000',1.04999725,-0.53003082,-0.08000732,29.9000351,3.57903952
'3:16.125',1.04999725,-0.53003082,-0.08000732,29.9000351,3.57903952
'3:16.250',1.05997253,-0.53003082,-0.08000732,29.9000351,3.57903952
'3:16.375',1.05997253,-0.53003082,-0.08000732,29.9000351,3.57903952
'3:16.500',1.04999725,-0.53003082,-0.08000732,29.9000351,3.57903952
'3:16.625',1.04999725,-0.52001221,-0.08000732,29.9000351,3.57903952
'3:16.750',1.05997253,-0.52001221,-0.08000732,29.9000351,3.57903952
'3:16.875',1.05997253,-0.53003082,-0.08000732,29.9000351,3.57903952
'3:17.000',1.05997253,-0.53003082,-0.08000732,29.9000351,3.57903952
'3:17.125',1.04999725,-0.52001221,-0.08000732,29.9000351,3.57903952
'3:17.250',1.05997253,-0.52001221,-0.08000732,30.10008393,3.57903952
'3:17.375',1.05997253,-0.52001221,-0.08000732,30.10008393,3.58506742
'3:17.500',1.05997253,-0.52001221,-0.08000732,30.10008393,3.57903952
'3:17.625',1.05997253,-0.52001221,-0.08000732,29.9000351,3.58506742
'3:17.750',1.05997253,-0.52001221,-0.08000732,29.9000351,3.58506742
'3:17.875',1.05997253,-0.52001221,-0.08000732,29.9000351,3.57903952
'3:18.000',1.04999725,-0.52001221,-0.08000732,30.10008393,3.57903952
'3:18.125',1.05997253,-0.53003082,-0.07000641,29.9000351,3.57903952
'3:18.250',1.05997253,-0.53003082,-0.08000732,29.9000351,3.57903952
'3:18.375',1.04999725,-0.53003082,-0.08000732,30.10008393,3.57903952
'3:18.500',1.04999725,-0.52001221,-0.08000732,29.9000351,3.57903952
'3:18.625',1.04999725,-0.53003082,-0.08000732,30.10008393,3.57903952
'3:18.750',1.04999725,-0.53003082,-0.08000732,30.10008393,3.57903952
'3:18.875',1.05997253,-0.53003082,-0.08000732,30.10008393,3.57903952
'3:19.000',1.04999725,-0.52001221,-0.08000732,30.10008393,3.57903952
'3:19.125',1.05997253,-0.53003082,-0.08000732,30.10008393,3.57903952
'3:19.250',1.05997253,-0.53003082,-0.08000732,30.10008393,3.57903952
'3:19.375',1.04999725,-0.53003082,-0.08000732,29.9000351,3.57903952
'3:19.500',1.04999725,-0.53003082,-0.08000732,29.9000351,3.57903952
'3:19.625',1.04999725,-0.53003082,-0.08000732,29.9000351,3.55303861
'3:19.750',1.04999725,-0.52001221,-0.08000732,29.9000351,3.57903952
'3:19.875',1.04999725,-0.52001221,-0.08000732,29.9000351,3.55303861
'3:20.000',1.05997253,-0.53003082,-0.08000732,30.10008393,3.57903952
'3:20.125',1.04999725,-0.53003082,-0.08000732,29.9000351,3.55303861
'3:20.250',1.04999725,-0.52001221,-0.08000732,30.10008393,3.57903952
'3:20.375',1.05997253,-0.53003082,-0.08000732,30.10008393,3.55303861
'3:20.500',1.04999725,-0.53003082,-0.08000732,30.10008393,3.57903952
'3:20.625',1.05997253,-0.53003082,-0.08000732,30.10008393,3.57903952
'3:20.750',1.05997253,-0.53003082,-0.08000732,30.10008393,3.57903952
'3:20.875',1.05997253,-0.52001221,-0.08000732,30.10008393,3.57903952
'3:21.000',1.05997253,-0.52001221,-0.08000732,30.10008393,3.57903952
'3:21.125',1.04999725,-0.52001221,-0.08000732,30.10008393,3.58506742
'3:21.250',1.04999725,-0.52001221,-0.08000732,30.10008393,3.57903952
'3:21.375',1.04999725,-0.53003082,-0.08000732,30.10008393,3.58506742
'3:21.500',1.05997253,-0.53003082,-0.08000732,30.10008393,3.60504044
'3:21.625',1.05997253,-0.52001221,-0.08000732,30.10008393,3.58506742
'3:21.750',1.05997253,-0.52001221,-0.08000732,30.10008393,3.58506742
'3:21.875',1.04999725,-0.53003082,-0.08000732,30.10008393,3.58506742
'3:22.000',1.04999725,-0.52001221,-0.08000732,30.10008393,3.58506742
'3:22.125',1.04999725,-0.53003082,-0.08000732,30.10008393,3.58506742
'3:22.250',1.05997253,-0.53003082,-0.08000732,30.10008393,3.60504044
'3:22.375',1.05997253,-0.53003082,-0.08000732,30.10008393,3.58506742
'3:22.500',1.05997253,-0.53003082,-0.08000732,30.10008393,3.58506742
'3:22.625',1.04999725,-0.53003082,-0.08000732,30.10008393,3.58506742
'3:22.750',1.05997253,-0.53003082,-0.08000732,30.10008393,3.58506742
'3:22.875',1.04999725,-0.53003082,-0.08000732,30.10008393,3.58506742
'3:23.000',1.04999725,-0.53003082,-0.08000732,30.10008393,3.58506742
'3:23.125',1.05997253,-0.53003082,-0.08000732,30.10008393,3.58506742
'3:23.250',1.04999725,-0.53003082,-0.08000732,29.9000351,3.61106833
'3:23.375',1.05997253,-0.53003082,-0.08000732,30.10008393,3.58506742
'3:23.500',1.04999725,-0.53003082,-0.08000732,30.10008393,3.58506742
'3:23.625',1.05997253,-0.53003082,-0.08000732,30.10008393,3.58506742
'3:23.750',1.04999725,-0.53003082,-0.08000732,30.10008393,3.58506742
'3:23.875',1.04999725,-0.52001221,-0.08000732,30.10008393,3.58506742
'3:24.000',1.05997253,-0.53003082,-0.08000732,30.10008393,3.58506742
'3:24.125',1.04999725,-0.52001221,-0.08000732,30.10008393,3.58506742
'3:24.250',1.05997253,-0.53003082,-0.08000732,30.10008393,3.57903952
'3:24.375',1.05997253,-0.53003082,-0.08000732,29.9000351,3.58506742
'3:24.500',1.04999725,-0.53003082,-0.08000732,30.10008393,3.58506742
'3:24.625',1.05997253,-0.53003082,-0.08000732,30.10008393,3.58506742
'3:24.750',1.05997253,-0.52001221,-0.08000732,30.10008393,3.57903952
'3:24.875',1.04999725,-0.52001221,-0.08000732,30.10008393,3.58506742
'3:25.000',1.05997253,-0.52001221,-0.08000732,30.10008393,3.57903952
'3:25.125',1.05997253,-0.53003082,-0.08000732,30.10008393,3.57903952
'3:25.250',1.05997253,-0.52001221,-0.08000732,30.10008393,3.58506742
'3:25.375',1.04999725,-0.53003082,-0.08000732,30.10008393,3.58506742
'3:25.500',1.04999725,-0.53003082,-0.08000732,30.10008393,3.58506742
'3:25.625',1.04999725,-0.52001221,-0.08000732,30.10008393,3.57903952
'3:25.750',1.05997253,-0.53003082,-0.07000641,30.10008393,3.57903952
'3:25.875',1.04999725,-0.53003082,-0.08000732,30.10008393,3.6000022
'3:26.000',1.05997253,-0.53003082,-0.08000732,30.10008393,3.57903952
'3:26.125',1.05997253,-0.53003082,-0.08000732,30.10008393,3.57903952
'3:26.250',1.04999725,-0.53003082,-0.08000732,30.10008393,3.57903952
'3:26.375',1.04999725,-0.53003082,-0.08000732,30.10008393,3.57903952
'3:26.500',1.05997253,-0.53003082,-0.08000732,30.10008393,3.57903952
'3:26.625',1.04999725,-0.53003082,-0.08000732,30.10008393,3.58506742
'3:26.750',1.04999725,-0.52001221,-0.08000732,30.10008393,3.57903952
'3:26.875',1.05997253,-0.53003082,-0.08000732,30.10008393,3.57903952
'3:27.000',1.05997253,-0.53003082,-0.08000732,30.10008393,3.57903952
'3:27.125',1.04999725,-0.53003082,-0.08000732,30.10008393,3.57903952
'3:27.250',1.04999725,-0.53003082,-0.08000732,30.10008393,3.57903952
'3:27.375',1.05997253,-0.53003082,-0.08000732,30.10008393,3.57903952
'3:27.500',1.05997253,-0.52001221,-0.08000732,30.10008393,3.6000022
'3:27.625',1.05997253,-0.53003082,-0.08000732,30.10008393,3.57903952
'3:27.750',1.04999725,-0.53003082,-0.08000732,30.10008393,3.57903952
'3:27.875',1.05997253,-0.53003082,-0.08000732,30.10008393,3.6000022
'3:28.000',1.05997253,-0.52001221,-0.08000732,30.10008393,3.57903952
'3:28.125',1.05997253,-0.53003082,-0.08000732,30.10008393,3.57903952
'3:28.250',1.04999725,-0.52001221,-0.08000732,30.10008393,3.57903952
'3:28.375',1.05997253,-0.52001221,-0.08000732,30.10008393,3.55303861
'3:28.500',1.04999725,-0.52001221,-0.08000732,30.10008393,3.6000022
'3:28.625',1.04999725,-0.52001221,-0.08000732,30.10008393,3.57903952
'3:28.750',1.05997253,-0.53003082,-0.08000732,30.10008393,3.55303861
'3:28.875',1.05997253,-0.52001221,-0.08000732,30.10008393,3.57903952
'3:29.000',1.05997253,-0.52001221,-0.08000732,30.10008393,3.57903952
'3:29.125',1.05997253,-0.52001221,-0.08000732,30.10008393,3.55303861
'3:29.250',1.05997253,-0.53003082,-0.08000732,30.10008393,3.57301163
'3:29.375',1.04999725,-0.52001221,-0.08000732,30.10008393,3.55303861
'3:29.500',1.05997253,-0.53003082,-0.08000732,30.10008393,3.57903952
'3:29.625',1.04999725,-0.52001221,-0.08000732,30.10008393,3.57903952
'3:29.750',1.05997253,-0.52001221,-0.08000732,30.10008393,3.55303861
'3:29.875',1.05997253,-0.53003082,-0.08000732,30.10008393,3.55303861
'3:30.000',1.04999725,-0.53003082,-0.08000732,30.10008393,3.57903952
'3:30.125',1.05997253,-0.52001221,-0.08000732,30.10008393,3.55303861
'3:30.250',1.05997253,-0.53003082,-0.08000732,30.10008393,3.55303861
'3:30.375',1.04999725,-0.53003082,-0.08000732,30.10008393,3.57903952
'3:30.500',1.05997253,-0.52001221,-0.08000732,30.10008393,3.57903952
'3:30.625',1.04999725,-0.52001221,-0.08000732,30.10008393,3.55303861
'3:30.750',1.04999725,-0.53003082,-0.08000732,30.10008393,3.55303861
'3:30.875',1.04999725,-0.53003082,-0.08000732,30.10008393,3.6000022
'3:31.000',1.05997253,-0.53003082,-0.08000732,30.10008393,3.57903952
'3:31.125',1.05997253,-0.53003082,-0.08000732,30.10008393,3.57903952
'3:31.250',1.05997253,-0.53003082,-0.08000732,30.10008393,3.55303861
'3:31.375',1.05997253,-0.53003082,-0.08000732,30.10008393,3.57903952
'3:31.500',1.05997253,-0.53003082,-0.08000732,30.10008393,3.55303861
'3:31.625',1.04999725,-0.52001221,-0.08000732,30.10008393,3.55303861
'3:31.750',1.04999725,-0.53003082,-0.08000732,30.10008393,3.55303861
'3:31.875',1.04999725,-0.53003082,-0.08000732,30.10008393,3.55303861
'3:32.000',1.05997253,-0.52001221,-0.08000732,30.10008393,3.55303861
'3:32.125',1.05997253,-0.52001221,-0.08000732,30.10008393,3.57301163
'3:32.250',1.05997253,-0.53003082,-0.08000732,30.10008393,3.57301163
'3:32.375',1.05997253,-0.53003082,-0.07000641,30.10008393,3.55303861
'3:32.500',1.05997253,-0.52001221,-0.08000732,30.10008393,3.55303861
'3:32.625',1.05997253,-0.52001221,-0.08000732,30.10008393,3.57301163
'3:32.750',1.04999725,-0.52001221,-0.08000732,30.10008393,3.55303861
'3:32.875',1.05997253,-0.52001221,-0.08000732,30.10008393,3.55303861
'3:33.000',1.04999725,-0.53003082,-0.08000732,30.10008393,3.57903952
'3:33.125',1.05997253,-0.53003082,-0.08000732,30.10008393,3.6000022
'3:33.250',1.05997253,-0.52001221,-0.08000732,30.10008393,3.57903952
'3:33.375',1.05997253,-0.53003082,-0.08000732,30.10008393,3.57903952
'3:33.500',1.05997253,-0.52001221,-0.08000732,30.10008393,3.57903952
'3:33.625',1.05997253,-0.53003082,-0.08000732,30.10008393,3.57903952
'3:33.750',1.04999725,-0.53003082,-0.08000732,30.10008393,3.57903952
'3:33.875',1.05997253,-0.52001221,-0.08000732,30.10008393,3.57903952
'3:34.000',1.05997253,-0.53003082,-0.08000732,30.10008393,3.58506742
'3:34.125',1.04999725,-0.53003082,-0.08000732,30.10008393,3.57903952
'3:34.250',1.05997253,-0.53003082,-0.08000732,30.10008393,3.58506742
'3:34.375',1.05997253,-0.52001221,-0.08000732,30.10008393,3.58506742
'3:34.500',1.05997253,-0.52001221,-0.08000732,30.10008393,3.57903952
'3:34.625',1.05997253,-0.53003082,-0.08000732,30.10008393,3.58506742
'3:34.750',1.04999725,-0.52001221,-0.08000732,30.10008393,3.58506742
'3:34.875',1.05997253,-0.53003082,-0.08000732,30.10008393,3.58506742
'3:35.000',1.05997253,-0.53003082,-0.07000641,30.10008393,3.57903952
'3:35.125',1.04999725,-0.52001221,-0.08000732,30.10008393,3.57903952
'3:35.250',1.05997253,-0.53003082,-0.08000732,30.10008393,3.57903952
'3:35.375',1.04999725,-0.53003082,-0.08000732,30.10008393,3.57903952
'3:35.500',1.04999725,-0.53003082,-0.08000732,30.10008393,3.57903952
'3:35.625',1.04999725,-0.52001221,-0.08000732,30.10008393,3.57903952
'3:35.750',1.04999725,-0.52001221,-0.08000732,30.10008393,3.57903952
'3:35.875',1.04999725,-0.52001221,-0.08000732,30.10008393,3.55303861
'3:36.000',1.05997253,-0.53003082,-0.08000732,30.10008393,3.55303861
'3:36.125',1.05997253,-0.52001221,-0.08000732,30.10008393,3.57903952
'3:36.250',1.04999725,-0.52001221,-0.08000732,30.10008393,3.55303861
'3:36.375',1.05997253,-0.52001221,-0.08000732,30.10008393,3.55303861
'3:36.500',1.05997253,-0.52001221,-0.08000732,30.10008393,3.57903952
'3:36.625',1.05997253,-0.53003082,-0.08000732,30.10008393,3.57903952
'3:36.750',1.04999725,-0.53003082,-0.08000732,30.10008393,3.55303861
'3:36.875',1.05997253,-0.53003082,-0.08000732,30.10008393,3.55303861
'3:37.000',1.05997253,-0.52001221,-0.08000732,30.10008393,3.57903952
'3:37.125',1.05997253,-0.53003082,-0.08000732,30.10008393,3.55303861
'3:37.250',1.05997253,-0.53003082,-0.08000732,30.10008393,3.55303861
'3:37.375',1.05997253,-0.53003082,-0.08000732,30.10008393,3.57301163
'3:37.500',1.04999725,-0.53003082,-0.08000732,30.10008393,3.55303861
'3:37.625',1.05997253,-0.53003082,-0.08000732,30.10008393,3.55303861
'3:37.750',1.04999725,-0.53003082,-0.08000732,30.10008393,3.55303861
'3:37.875',1.05997253,-0.53003082,-0.08000732,30.10008393,3.55303861
'3:38.000',1.05997253,-0.53003082,-0.08000732,30.10008393,3.55303861
'3:38.125',1.05997253,-0.52001221,-0.08000732,30.10008393,3.55303861
'3:38.250',1.05997253,-0.53003082,-0.08000732,30.10008393,3.55303861
'3:38.375',1.05997253,-0.53003082,-0.08000732,30.10008393,3.55303861
'3:38.500',1.05997253,-0.53003082,-0.08000732,30.10008393,3.57301163
'3:38.625',1.04999725,-0.52001221,-0.08000732,30.10008393,3.55303861
'3:38.750',1.04999725,-0.53003082,-0.08000732,30.10008393,3.55303861
'3:38.875',1.05997253,-0.52001221,-0.08000732,30.10008393,3.55303861
'3:39.000',1.04999725,-0.53003082,-0.08000732,30.10008393,3.55303861
'3:39.125',1.04999725,-0.52001221,-0.08000732,30.10008393,3.57903952
'3:39.250',1.04999725,-0.53003082,-0.08000732,30.10008393,3.55303861
'3:39.375',1.05997253,-0.53003082,-0.08000732,30.10008393,3.55303861
'3:39.500',1.05997253,-0.52001221,-0.08000732,30.10008393,3.55303861
'3:39.625',1.04999725,-0.52001221,-0.08000732,30.10008393,3.55303861
'3:39.750',1.04999725,-0.53003082,-0.08000732,30.10008393,3.55303861
'3:39.875',1.05997253,-0.52001221,-0.08000732,30.10008393,3.55303861
