Elapsed time,ax,ay,az,temp,EDA
'0:00.000',0.68997894,-0.90000000,0.06998505,28.90001526,0.70901653
'0:00.125',0.68997894,-0.90000000,0.06998505,28.90001526,0.70901653
'0:00.250',0.69997864,-0.90000000,0.06998505,28.90001526,0.70603455
'0:00.375',0.68997894,-0.90000000,0.06998505,28.90001526,0.70603455
'0:00.500',0.68997894,-0.90000000,0.05998077,28.70005799,0.69900851
'0:00.625',0.68997894,-0.90000000,0.05998077,28.90001526,0.70101012
'0:00.750',0.68997894,-0.90000000,0.06998505,28.90001526,0.70101012
'0:00.875',0.67997925,-0.90000000,0.05998077,28.90001526,0.69402493
'0:01.000',0.67997925,-0.90000000,0.06998505,28.90001526,0.69402493
'0:01.125',0.68997894,-0.90000000,0.06998505,28.90001526,0.69402493
'0:01.250',0.68997894,-0.90000000,0.06998505,28.90001526,0.68900050
'0:01.375',0.68997894,-0.90000000,0.05998077,28.90001526,0.68601852
'0:01.500',0.68997894,-0.90000000,0.06998505,28.90001526,0.68601852
'0:01.625',0.67997925,-0.90000000,0.05998077,28.90001526,0.68201532
'0:01.750',0.68997894,-0.90000000,0.06998505,28.90001526,0.67903334
'0:01.875',0.67997925,-0.90000000,0.06998505,28.90001526,0.67903334
'0:02.000',0.68997894,-0.90000000,0.06998505,28.90001526,0.67903334
'0:02.125',0.68997894,-0.90000000,0.06998505,28.90001526,0.67903334
'0:02.250',0.67997925,-0.90000000,0.05998077,28.90001526,0.67200731
'0:02.375',0.68997894,-0.90000000,0.06998505,28.90001526,0.67200731
'0:02.500',0.68997894,-0.90000000,0.06998505,28.90001526,0.67000571
'0:02.625',0.68997894,-0.90000000,0.06998505,28.90001526,0.66702373
'0:02.750',0.68997894,-0.90000000,0.06998505,28.90001526,0.66302052
'0:02.875',0.68997894,-0.90000000,0.06998505,28.90001526,0.66400090
'0:03.000',0.68997894,-0.90000000,0.06998505,28.90001526,0.66400090
'0:03.125',0.68997894,-0.90000000,0.06998505,28.90001526,0.66204015
'0:03.250',0.67997925,-0.90000000,0.06998505,28.90001526,0.65701572
'0:03.375',0.68997894,-0.90000000,0.06998505,28.90001526,0.65701572
'0:03.500',0.67997925,-0.90000000,0.06998505,28.90001526,0.65701572
'0:03.625',0.68997894,-0.90000000,0.06998505,28.90001526,0.65301251
'0:03.750',0.68997894,-0.90000000,0.06998505,28.90001526,0.65301251
'0:03.875',0.67997925,-0.89001892,0.06998505,28.90001526,0.65003053
'0:04.000',0.68997894,-0.90000000,0.05998077,28.90001526,0.65003053
'0:04.125',0.68997894,-0.90000000,0.06998505,28.90001526,0.65003053
'0:04.250',0.68997894,-0.90000000,0.06998505,28.90001526,0.64300450
'0:04.375',0.68997894,-0.90000000,0.06998505,28.90001526,0.64300450
'0:04.500',0.68997894,-0.90000000,0.06998505,28.90001526,0.63601932
'0:04.625',0.68997894,-0.90000000,0.06998505,28.90001526,0.63601932
'0:04.750',0.68997894,-0.91002838,0.06998505,28.90001526,0.63601932
'0:04.875',0.67997925,-0.90000000,0.06998505,28.90001526,0.63303734
'0:05.000',0.68997894,-0.90000000,0.06998505,28.90001526,0.63303734
'0:05.125',0.68997894,-0.90000000,0.05998077,28.90001526,0.62903413
'0:05.250',0.67997925,-0.90000000,0.06998505,28.90001526,0.62903413
'0:05.375',0.68997894,-0.90000000,0.06998505,29.10003204,0.62903413
'0:05.500',0.68997894,-0.90000000,0.06998505,28.90001526,0.62400970
'0:05.625',0.68997894,-0.91002838,0.06998505,28.90001526,0.62102773
'0:05.750',0.68997894,-0.91002838,0.05998077,28.90001526,0.62102773
'0:05.875',0.67997925,-0.91002838,0.06998505,28.90001526,0.62102773
'0:06.000',0.68997894,-0.90000000,0.06998505,28.90001526,0.61400169
'0:06.125',0.67997925,-0.90000000,0.05998077,28.90001526,0.61302132
'0:06.250',0.67997925,-0.90000000,0.05998077,28.90001526,0.61200009
'0:06.375',0.68997894,-0.91002838,0.06998505,28.90001526,0.60803774
'0:06.500',0.69997864,-0.90000000,0.06998505,28.90001526,0.60803774
'0:06.625',0.68997894,-0.90000000,0.05998077,28.90001526,0.60803774
'0:06.750',0.68997894,-0.91002838,0.06998505,28.90001526,0.60301331
'0:06.875',0.68997894,-0.90000000,0.06998505,28.90001526,0.60301331
'0:07.000',0.69997864,-0.91002838,0.06998505,28.90001526,0.60301331
'0:07.125',0.67997925,-0.90000000,0.06998505,28.90001526,0.60101170
'0:07.250',0.68997894,-0.90000000,0.06998505,28.90001526,0.60101170
'0:07.375',0.67997925,-0.90000000,0.05998077,28.90001526,0.59402652
'0:07.500',0.68997894,-0.91002838,0.06998505,28.90001526,0.59402652
'0:07.625',0.66997955,-0.89001892,0.06998505,28.90001526,0.59402652
'0:07.750',0.68997894,-0.91002838,0.06998505,28.90001526,0.58700049
'0:07.875',0.68997894,-0.91002838,0.07998932,28.90001526,0.58503974
'0:08.000',0.68997894,-0.90000000,0.06998505,29.10003204,0.58503974
'0:08.125',0.67997925,-0.90000000,0.05998077,29.10003204,0.58303813
'0:08.250',0.68997894,-0.90000000,0.06998505,29.10003204,0.58503974
'0:08.375',0.67997925,-0.90000000,0.05998077,28.90001526,0.58303813
'0:08.500',0.68997894,-0.90000000,0.06998505,29.10003204,0.58001531
'0:08.625',0.68997894,-0.90000000,0.06998505,29.10003204,0.58001531
'0:08.750',0.68997894,-0.91002838,0.06998505,28.90001526,0.58001531
'0:08.875',0.67997925,-0.90000000,0.06998505,29.10003204,0.57601210
'0:09.000',0.67997925,-0.90000000,0.06998505,29.10003204,0.57303012
'0:09.125',0.67997925,-0.90000000,0.06998505,28.90001526,0.57303012
'0:09.250',0.68997894,-0.90000000,0.06998505,29.10003204,0.57303012
'0:09.375',0.67997925,-0.90000000,0.05998077,28.90001526,0.56600409
'0:09.500',0.68997894,-0.90000000,0.06998505,29.10003204,0.56600409
'0:09.625',0.67997925,-0.90000000,0.06998505,28.90001526,0.56600409
'0:09.750',0.66997955,-0.91002838,0.05998077,29.10003204,0.56004013
'0:09.875',0.68997894,-0.88003784,0.06998505,29.10003204,0.56004013
'0:10.000',0.68997894,-0.92000946,0.04997650,29.10003204,0.56004013
'0:10.125',0.74997711,-0.88003784,0.05998077,28.90001526,0.55603693
'0:10.250',0.74997711,-0.90000000,0.03997223,29.10003204,0.55603693
'0:10.375',0.77997620,-0.89001892,0.05998077,29.10003204,0.55603693
'0:10.500',0.73997742,-0.93003784,0.10995727,29.10003204,0.55603693
'0:10.625',0.71997803,-0.82000946,0.07998932,29.10003204,0.54402731
'0:10.750',0.63998047,-0.90000000,0.04997650,29.10003204,0.52000809
'0:10.875',0.68997894,-0.88003784,0.11996155,28.90001526,0.50803932
'0:11.000',0.59998169,-0.91002838,0.06998505,29.10003204,0.52703412
'0:11.125',0.62998077,-0.91002838,0.08999359,29.10003204,0.54002411
'0:11.250',0.62998077,-0.88003784,0.08999359,28.90001526,0.54002411
'0:11.375',0.60998138,-0.91002838,0.11996155,29.10003204,0.53303893
'0:11.500',0.57998230,-0.94001892,0.11996155,29.10003204,0.53401930
'0:11.625',0.51002319,-0.90000000,0.15997864,29.10003204,0.54500769
'0:11.750',0.87997314,-1.10000000,0.08999359,29.10003204,0.54402731
'0:11.875',0.74997711,-0.91002838,0.15997864,29.10003204,0.52401129
'0:12.000',0.62998077,-0.91002838,0.15997864,28.90001526,0.51502451
'0:12.125',0.50002350,-0.94001892,0.12996582,29.10003204,0.51902771
'0:12.250',0.82997467,-0.85000000,0.11996155,29.10003204,0.52703412
'0:12.375',0.66997955,-0.92000946,0.14997436,28.90001526,0.52801450
'0:12.500',0.52002289,-0.96002838,0.12996582,29.10003204,0.53201770
'0:12.625',0.69997864,-0.92000946,0.10995727,29.10003204,0.53303893
'0:12.750',0.60998138,-0.91002838,0.13997009,29.10003204,0.53303893
'0:12.875',0.61998108,-0.94001892,0.13997009,28.90001526,0.53303893
'0:13.000',0.57002136,-0.95000000,0.12996582,29.10003204,0.53602091
'0:13.125',0.58998199,-0.93003784,0.13997009,29.10003204,0.53602091
'0:13.250',0.57998230,-0.95000000,0.14997436,29.10003204,0.53602091
'0:13.375',0.58998199,-0.94001892,0.13997009,29.10003204,0.53201770
'0:13.500',0.57998230,-0.95000000,0.13997009,29.10003204,0.53303893
'0:13.625',0.57002136,-0.94001892,0.13997009,29.10003204,0.52903572
'0:13.750',0.57002136,-0.95000000,0.13997009,29.10003204,0.52703412
'0:13.875',0.57998230,-0.95000000,0.13997009,29.10003204,0.52503252
'0:14.000',0.57002136,-0.94001892,0.13997009,29.10003204,0.52503252
'0:14.125',0.57998230,-0.94001892,0.14997436,29.10003204,0.52503252
'0:14.250',0.57002136,-0.94001892,0.13997009,28.90001526,0.52102931
'0:14.375',0.57002136,-0.95000000,0.13997009,29.10003204,0.52503252
'0:14.500',0.57002136,-0.95000000,0.13997009,29.10003204,0.52303092
'0:14.625',0.57002136,-0.95000000,0.13997009,29.10003204,0.52000809
'0:14.750',0.57002136,-0.95000000,0.13997009,29.10003204,0.51902771
'0:14.875',0.57002136,-0.94001892,0.13997009,29.10003204,0.51902771
'0:15.000',0.57002136,-0.95000000,0.13997009,29.10003204,0.51902771
'0:15.125',0.57002136,-0.95000000,0.13997009,29.10003204,0.51902771
'0:15.250',0.57002136,-0.95000000,0.13997009,29.10003204,0.51502451
'0:15.375',0.57002136,-0.94001892,0.13997009,29.10003204,0.51200168
'0:15.500',0.57002136,-0.95000000,0.13997009,29.10003204,0.51400328
'0:15.625',0.57002136,-0.95000000,0.13997009,29.10003204,0.51400328
'0:15.750',0.57002136,-0.95000000,0.14997436,29.10003204,0.51000008
'0:15.875',0.56002167,-0.95000000,0.13997009,29.10003204,0.50701810
'0:16.000',0.57002136,-0.94001892,0.13997009,29.10003204,0.50603772
'0:16.125',0.56002167,-0.95000000,0.13997009,29.10003204,0.50701810
'0:16.250',0.57002136,-0.95000000,0.13997009,29.10003204,0.50101329
'0:16.375',0.57002136,-0.95000000,0.13997009,29.10003204,0.50003291
'0:16.500',0.56002167,-0.95000000,0.13997009,29.10003204,0.50101329
'0:16.625',0.56002167,-0.95000000,0.13997009,29.10003204,0.49402811
'0:16.750',0.56002167,-0.95000000,0.13997009,29.10003204,0.49701009
'0:16.875',0.56002167,-0.95000000,0.13997009,29.10003204,0.49402811
'0:17.000',0.55002197,-0.95000000,0.14997436,29.10003204,0.49402811
'0:17.125',0.55002197,-0.95000000,0.14997436,29.10003204,0.49300688
'0:17.250',0.56002167,-0.95000000,0.14997436,29.10003204,0.49402811
'0:17.375',0.55002197,-0.95000000,0.13997009,29.10003204,0.48900368
'0:17.500',0.56002167,-0.95000000,0.13997009,29.10003204,0.48802330
'0:17.625',0.55002197,-0.95000000,0.13997009,29.10003204,0.48802330
'0:17.750',0.56002167,-0.95000000,0.13997009,29.10003204,0.48700208
'0:17.875',0.55002197,-0.95000000,0.14997436,29.10003204,0.48201849
'0:18.000',0.55002197,-0.95000000,0.14997436,29.10003204,0.48103812
'0:18.125',0.57002136,-0.95000000,0.13997009,29.10003204,0.48201849
'0:18.250',0.55002197,-0.95000000,0.14997436,29.10003204,0.48201849
'0:18.375',0.55002197,-0.95000000,0.13997009,29.10003204,0.48201849
'0:18.500',0.55002197,-0.95000000,0.14997436,29.10003204,0.48103812
'0:18.625',0.56002167,-0.95000000,0.14997436,29.10003204,0.47801529
'0:18.750',0.56002167,-0.96002838,0.14997436,29.10003204,0.47401209
'0:18.875',0.56002167,-0.95000000,0.14997436,29.10003204,0.47503331
'0:19.000',0.56002167,-0.95000000,0.13997009,29.10003204,0.47401209
'0:19.125',0.55002197,-0.95000000,0.13997009,29.10003204,0.47401209
'0:19.250',0.56002167,-0.95000000,0.13997009,29.10003204,0.47503331
'0:19.375',0.56002167,-0.95000000,0.14997436,29.10003204,0.47401209
'0:19.500',0.56002167,-0.95000000,0.13997009,29.10003204,0.47401209
'0:19.625',0.56002167,-0.95000000,0.14997436,29.10003204,0.46902850
'0:19.750',0.56002167,-0.96002838,0.13997009,29.10003204,0.46800728
'0:19.875',0.56002167,-0.95000000,0.13997009,29.10003204,0.46902850
'0:20.000',0.55002197,-0.95000000,0.14997436,29.10003204,0.46902850
'0:20.125',0.56002167,-0.95000000,0.14997436,29.10003204,0.46800728
'0:20.250',0.56002167,-0.95000000,0.13997009,29.10003204,0.46302370
'0:20.375',0.56002167,-0.95000000,0.14997436,29.10003204,0.46200247
'0:20.500',0.56002167,-0.96002838,0.14997436,29.10003204,0.46200247
'0:20.625',0.56002167,-0.95000000,0.14997436,29.10003204,0.45902049
'0:20.750',0.56002167,-0.96002838,0.14997436,29.10003204,0.45701889
'0:20.875',0.55002197,-0.95000000,0.13997009,29.10003204,0.45603851
'0:21.000',0.56002167,-0.95000000,0.14997436,29.10003204,0.45603851
'0:21.125',0.56002167,-0.95000000,0.13997009,29.10003204,0.45603851
'0:21.250',0.55002197,-0.95000000,0.14997436,29.10003204,0.45701889
'0:21.375',0.56002167,-0.95000000,0.14997436,29.10003204,0.45301569
'0:21.500',0.56002167,-0.95000000,0.14997436,29.10003204,0.45101408
'0:21.625',0.56002167,-0.95000000,0.13997009,29.10003204,0.45003371
'0:21.750',0.56002167,-0.96002838,0.14997436,29.10003204,0.45003371
'0:21.875',0.56002167,-0.95000000,0.13997009,29.10003204,0.45003371
'0:22.000',0.55002197,-0.95000000,0.13997009,29.10003204,0.45101408
'0:22.125',0.56002167,-0.95000000,0.14997436,29.10003204,0.44300768
'0:22.250',0.56002167,-0.95000000,0.14997436,29.10003204,0.44300768
'0:22.375',0.55002197,-0.95000000,0.13997009,29.10003204,0.44300768
'0:22.500',0.55002197,-0.95000000,0.14997436,29.10003204,0.44500928
'0:22.625',0.55002197,-0.95000000,0.14997436,29.10003204,0.44202730
'0:22.750',0.55002197,-0.95000000,0.14997436,29.10003204,0.43802409
'0:22.875',0.56002167,-0.95000000,0.14997436,29.10003204,0.43700287
'0:23.000',0.55002197,-0.95000000,0.14997436,29.10003204,0.43700287
'0:23.125',0.55002197,-0.95000000,0.13997009,29.10003204,0.43802409
'0:23.250',0.56002167,-0.95000000,0.13997009,29.10003204,0.43500127
'0:23.375',0.55002197,-0.95000000,0.14997436,29.10003204,0.43500127
'0:23.500',0.56002167,-0.95000000,0.14997436,29.10003204,0.43103891
'0:23.625',0.55002197,-0.95000000,0.14997436,29.10003204,0.43602249
'0:23.750',0.56002167,-0.95000000,0.13997009,29.10003204,0.43103891
'0:23.875',0.55002197,-0.95000000,0.13997009,29.10003204,0.43201929
'0:24.000',0.55002197,-0.95000000,0.14997436,29.10003204,0.43103891
'0:24.125',0.55002197,-0.95000000,0.13997009,29.10003204,0.42903731
'0:24.250',0.55002197,-0.95000000,0.14997436,29.10003204,0.43103891
'0:24.375',0.55002197,-0.95000000,0.14997436,29.10003204,0.42601448
'0:24.500',0.55002197,-0.95000000,0.14997436,29.10003204,0.42601448
'0:24.625',0.56002167,-0.95000000,0.13997009,29.10003204,0.42503410
'0:24.750',0.56002167,-0.95000000,0.14997436,29.30004883,0.42503410
'0:24.875',0.55002197,-0.95000000,0.13997009,29.30004883,0.41902930
'0:25.000',0.56002167,-0.95000000,0.14997436,29.30004883,0.41902930
'0:25.125',0.56002167,-0.95000000,0.14997436,29.30004883,0.41902930
'0:25.250',0.56002167,-0.95000000,0.14997436,29.10003204,0.42000967
'0:25.375',0.55002197,-0.95000000,0.14997436,29.10003204,0.41702770
'0:25.500',0.56002167,-0.95000000,0.14997436,29.30004883,0.41400487
'0:25.625',0.55002197,-0.96002838,0.14997436,29.30004883,0.41400487
'0:25.750',0.55002197,-0.95000000,0.14997436,29.10003204,0.41400487
'0:25.875',0.55002197,-0.95000000,0.14997436,29.30004883,0.41102289
'0:26.000',0.55002197,-0.95000000,0.14997436,29.30004883,0.40800006
'0:26.125',0.55002197,-0.96002838,0.14997436,29.10003204,0.40800006
'0:26.250',0.55002197,-0.95000000,0.14997436,29.10003204,0.40701968
'0:26.375',0.55002197,-0.95000000,0.14997436,29.30004883,0.40701968
'0:26.500',0.55002197,-0.95000000,0.14997436,29.30004883,0.40800006
'0:26.625',0.56002167,-0.95000000,0.14997436,29.30004883,0.40403771
'0:26.750',0.55002197,-0.95000000,0.13997009,29.30004883,0.40101488
'0:26.875',0.55002197,-0.95000000,0.14997436,29.10003204,0.40101488
'0:27.000',0.55002197,-0.95000000,0.13997009,29.30004883,0.40203610
'0:27.125',0.56002167,-0.95000000,0.14997436,29.10003204,0.40203610
'0:27.250',0.55002197,-0.96002838,0.14997436,29.30004883,0.40003450
'0:27.375',0.55002197,-0.95000000,0.14997436,29.30004883,0.40101488
'0:27.500',0.56002167,-0.95000000,0.14997436,29.30004883,0.40101488
'0:27.625',0.56002167,-0.95000000,0.13997009,29.30004883,0.39901328
'0:27.750',0.55002197,-0.96002838,0.13997009,29.30004883,0.40003450
'0:27.875',0.55002197,-0.95000000,0.13997009,29.30004883,0.39701167
'0:28.000',0.55002197,-0.95000000,0.14997436,29.30004883,0.39603130
'0:28.125',0.55002197,-0.95000000,0.14997436,29.30004883,0.39603130
'0:28.250',0.55002197,-0.95000000,0.14997436,29.30004883,0.39603130
'0:28.375',0.55002197,-0.95000000,0.13997009,29.30004883,0.39701167
'0:28.500',0.55002197,-0.95000000,0.14997436,29.30004883,0.39701167
'0:28.625',0.55002197,-0.95000000,0.13997009,29.30004883,0.39603130
'0:28.750',0.55002197,-0.95000000,0.14997436,29.30004883,0.39300847
'0:28.875',0.55002197,-0.95000000,0.14997436,29.30004883,0.39300847
'0:29.000',0.56002167,-0.95000000,0.13997009,29.30004883,0.39100687
'0:29.125',0.55002197,-0.95000000,0.14997436,29.30004883,0.39100687
'0:29.250',0.55002197,-0.95000000,0.14997436,29.30004883,0.39002649
'0:29.375',0.55002197,-0.95000000,0.13997009,29.30004883,0.39002649
'0:29.500',0.56002167,-0.95000000,0.14997436,29.10003204,0.38500206
'0:29.625',0.55002197,-0.95000000,0.14997436,29.10003204,0.38500206
'0:29.750',0.55002197,-0.95000000,0.14997436,29.30004883,0.38500206
'0:29.875',0.55002197,-0.96002838,0.14997436,29.30004883,0.38500206
'0:30.000',0.55002197,-0.95000000,0.13997009,29.30004883,0.38103970
'0:30.125',0.56002167,-0.95000000,0.14997436,29.30004883,0.38202008
'0:30.250',0.56002167,-0.95000000,0.14997436,29.30004883,0.38202008
'0:30.375',0.55002197,-0.95000000,0.13997009,29.30004883,0.37801688
'0:30.500',0.55002197,-0.96002838,0.13997009,29.30004883,0.37801688
'0:30.625',0.55002197,-0.96002838,0.14997436,29.30004883,0.37601527
'0:30.750',0.55002197,-0.95000000,0.14997436,29.30004883,0.37601527
'0:30.875',0.56002167,-0.95000000,0.14997436,29.30004883,0.37303330
'0:31.000',0.55002197,-0.95000000,0.13997009,29.30004883,0.37303330
'0:31.125',0.55002197,-0.95000000,0.14997436,29.30004883,0.37303330
'0:31.250',0.55002197,-0.95000000,0.14997436,29.30004883,0.37303330
'0:31.375',0.56002167,-0.95000000,0.14997436,29.30004883,0.37201207
'0:31.500',0.55002197,-0.95000000,0.14997436,29.30004883,0.37201207
'0:31.625',0.55002197,-0.95000000,0.14997436,29.30004883,0.37303330
'0:31.750',0.56002167,-0.96002838,0.14997436,29.30004883,0.37001047
'0:31.875',0.55002197,-0.95000000,0.14997436,29.30004883,0.36800887
'0:32.000',0.55002197,-0.95000000,0.13997009,29.30004883,0.36800887
'0:32.125',0.55002197,-0.95000000,0.13997009,29.30004883,0.36800887
'0:32.250',0.56002167,-0.95000000,0.14997436,29.30004883,0.36800887
'0:32.375',0.55002197,-0.95000000,0.14997436,29.30004883,0.36800887
'0:32.500',0.54002228,-0.96002838,0.14997436,29.30004883,0.36200406
'0:32.625',0.55002197,-0.95000000,0.14997436,29.30004883,0.36200406
'0:32.750',0.55002197,-0.95000000,0.14997436,29.30004883,0.36102368
'0:32.875',0.55002197,-0.95000000,0.14997436,29.30004883,0.36200406
'0:33.000',0.55002197,-0.95000000,0.14997436,29.30004883,0.36102368
'0:33.125',0.55002197,-0.95000000,0.13997009,29.30004883,0.35902208
'0:33.250',0.55002197,-0.95000000,0.14997436,29.30004883,0.35604010
'0:33.375',0.55002197,-0.95000000,0.14997436,29.30004883,0.35501888
'0:33.500',0.55002197,-0.96002838,0.13997009,29.30004883,0.35604010
'0:33.625',0.55002197,-0.95000000,0.13997009,29.30004883,0.35604010
'0:33.750',0.55002197,-0.95000000,0.14997436,29.30004883,0.35604010
'0:33.875',0.55002197,-0.95000000,0.13997009,29.30004883,0.35604010
'0:34.000',0.56002167,-0.95000000,0.14997436,29.30004883,0.35501888
'0:34.125',0.55002197,-0.95000000,0.13997009,29.30004883,0.35501888
'0:34.250',0.55002197,-0.95000000,0.14997436,29.30004883,0.35604010
'0:34.375',0.56002167,-0.95000000,0.14997436,29.30004883,0.35301727
'0:34.500',0.54002228,-0.95000000,0.13997009,29.30004883,0.35301727
'0:34.625',0.55002197,-0.95000000,0.13997009,29.30004883,0.35003529
'0:34.750',0.55002197,-0.95000000,0.14997436,29.30004883,0.35003529
'0:34.875',0.55002197,-0.95000000,0.13997009,29.30004883,0.35003529
'0:35.000',0.55002197,-0.95000000,0.13997009,29.30004883,0.35003529
'0:35.125',0.55002197,-0.95000000,0.13997009,29.30004883,0.34803369
'0:35.250',0.55002197,-0.95000000,0.14997436,29.30004883,0.34403049
'0:35.375',0.56002167,-0.95000000,0.14997436,29.30004883,0.34501086
'0:35.500',0.55002197,-0.95000000,0.14997436,29.30004883,0.34403049
'0:35.625',0.56002167,-0.95000000,0.14997436,29.30004883,0.34501086
'0:35.750',0.54002228,-0.96002838,0.13997009,29.30004883,0.34202889
'0:35.875',0.55002197,-0.95000000,0.14997436,29.30004883,0.34501086
'0:36.000',0.55002197,-0.95000000,0.13997009,29.30004883,0.34202889
'0:36.125',0.55002197,-0.95000000,0.14997436,29.30004883,0.34202889
'0:36.250',0.56002167,-0.95000000,0.14997436,29.30004883,0.33900606
'0:36.375',0.55002197,-0.95000000,0.13997009,29.30004883,0.34202889
'0:36.500',0.55002197,-0.94001892,0.14997436,29.30004883,0.33900606
'0:36.625',0.55002197,-0.95000000,0.13997009,29.30004883,0.33900606
'0:36.750',0.55002197,-0.95000000,0.14997436,29.30004883,0.33802568
'0:36.875',0.55002197,-0.95000000,0.14997436,29.30004883,0.33900606
'0:37.000',0.55002197,-0.95000000,0.14997436,29.30004883,0.33900606
'0:37.125',0.55002197,-0.95000000,0.13997009,29.30004883,0.33802568
'0:37.250',0.56002167,-0.95000000,0.14997436,29.30004883,0.33900606
'0:37.375',0.55002197,-0.95000000,0.13997009,29.50000610,0.33602408
'0:37.500',0.55002197,-0.95000000,0.13997009,29.50000610,0.33602408
'0:37.625',0.55002197,-0.95000000,0.13997009,29.50000610,0.33402248
'0:37.750',0.55002197,-0.96002838,0.13997009,29.50000610,0.33402248
'0:37.875',0.55002197,-0.95000000,0.13997009,29.50000610,0.33602408
'0:38.000',0.55002197,-0.95000000,0.14997436,29.30004883,0.33402248
'0:38.125',0.55002197,-0.95000000,0.13997009,29.30004883,0.33001927
'0:38.250',0.55002197,-0.95000000,0.14997436,29.30004883,0.33001927
'0:38.375',0.55002197,-0.96002838,0.14997436,29.50000610,0.32801767
'0:38.500',0.54002228,-0.96002838,0.13997009,29.30004883,0.32801767
'0:38.625',0.55002197,-0.95000000,0.14997436,29.30004883,0.32801767
'0:38.750',0.55002197,-0.96002838,0.13997009,29.50000610,0.32801767
'0:38.875',0.55002197,-0.95000000,0.14997436,29.50000610,0.32801767
'0:39.000',0.54002228,-0.96002838,0.14997436,29.30004883,0.32303409
'0:39.125',0.52002289,-0.97999054,0.16998291,29.50000610,0.32303409
'0:39.250',0.50002350,-0.96996216,0.14997436,29.30004883,0.32001126
'0:39.375',0.54002228,-0.95000000,0.14997436,29.30004883,0.32001126
'0:39.500',0.57002136,-0.91002838,0.13997009,29.50000610,0.32001126
'0:39.625',0.60998138,-0.92000946,0.19999573,29.30004883,0.32001126
'0:39.750',0.57002136,-0.95000000,0.15997864,29.50000610,0.31702928
'0:39.875',0.49002380,-0.96996216,0.11996155,29.30004883,0.31200485
'0:40.000',0.57998230,-1.00998108,0.28998932,29.50000610,0.30403929
'0:40.125',0.47002441,-0.85000000,0.24997223,29.30004883,0.30101646
'0:40.250',0.44002533,-0.76002838,0.40999573,29.30004883,0.30403929
'0:40.375',0.49002380,-0.76002838,0.45997223,29.50000610,0.30101646
'0:40.500',0.32002899,-0.77000946,0.48998505,29.50000610,0.30101646
'0:40.625',0.37002747,-0.88003784,0.40999573,29.30004883,0.30101646
'0:40.750',0.55002197,-0.88003784,0.24997223,29.50000610,0.30101646
'0:40.875',0.53002258,-0.89001892,0.19999573,29.30004883,0.30101646
'0:41.000',0.63998047,-0.90000000,0.17998718,29.50000610,0.30403929
'0:41.125',0.66997955,-0.88003784,0.13997009,29.30004883,0.30600005
'0:41.250',0.73997742,-0.85000000,0.07998932,29.30004883,0.30600005
'0:41.375',0.75997681,-0.86002838,0.13997009,29.50000610,0.30902287
'0:41.500',0.66997955,-0.91002838,0.14997436,29.50000610,0.31200485
'0:41.625',0.61998108,-0.91002838,0.18999145,29.50000610,0.31200485
'0:41.750',0.57998230,-0.93003784,0.17998718,29.30004883,0.31200485
'0:41.875',0.59998169,-0.92000946,0.17998718,29.50000610,0.31200485
'0:42.000',0.58998199,-0.93003784,0.17998718,29.50000610,0.31200485
'0:42.125',0.58998199,-0.93003784,0.17998718,29.50000610,0.30902287
'0:42.250',0.58998199,-0.93003784,0.17998718,29.50000610,0.31200485
'0:42.375',0.57998230,-0.94001892,0.17998718,29.50000610,0.30800165
'0:42.500',0.57998230,-0.93003784,0.17998718,29.50000610,0.30800165
'0:42.625',0.57002136,-0.93003784,0.17998718,29.50000610,0.30600005
'0:42.750',0.57002136,-0.93003784,0.17998718,29.30004883,0.30600005
'0:42.875',0.57998230,-0.93003784,0.17998718,29.50000610,0.30600005
'0:43.000',0.57998230,-0.93003784,0.17998718,29.50000610,0.30600005
'0:43.125',0.57998230,-0.93003784,0.17998718,29.50000610,0.30301807
'0:43.250',0.57998230,-0.93003784,0.17998718,29.50000610,0.30600005
'0:43.375',0.57998230,-0.93003784,0.17998718,29.50000610,0.30600005
'0:43.500',0.57998230,-0.93003784,0.17998718,29.50000610,0.30600005
'0:43.625',0.57002136,-0.93003784,0.17998718,29.50000610,0.30600005
'0:43.750',0.57998230,-0.94001892,0.17998718,29.30004883,0.30600005
'0:43.875',0.57998230,-0.93003784,0.17998718,29.50000610,0.30600005
'0:44.000',0.57002136,-0.93003784,0.17998718,29.50000610,0.30403929
'0:44.125',0.57002136,-0.93003784,0.17998718,29.50000610,0.30403929
'0:44.250',0.57002136,-0.93003784,0.17998718,29.50000610,0.30403929
'0:44.375',0.57998230,-0.93003784,0.17998718,29.50000610,0.30403929
'0:44.500',0.57002136,-0.93003784,0.18999145,29.50000610,0.30101646
'0:44.625',0.57002136,-0.94001892,0.17998718,29.50000610,0.30101646
'0:44.750',0.57002136,-0.94001892,0.17998718,29.50000610,0.30101646
'0:44.875',0.57998230,-0.93003784,0.17998718,29.50000610,0.30101646
'0:45.000',0.57002136,-0.93003784,0.17998718,29.50000610,0.30101646
'0:45.125',0.57998230,-0.93003784,0.17998718,29.50000610,0.30101646
'0:45.250',0.57002136,-0.93003784,0.17998718,29.50000610,0.30101646
'0:45.375',0.57998230,-0.93003784,0.17998718,29.50000610,0.30003609
'0:45.500',0.57998230,-0.93003784,0.17998718,29.50000610,0.30101646
'0:45.625',0.57002136,-0.92000946,0.17998718,29.50000610,0.30101646
'0:45.750',0.57998230,-0.93003784,0.17998718,29.50000610,0.30101646
'0:45.875',0.57998230,-0.93003784,0.17998718,29.50000610,0.29803449
'0:46.000',0.57998230,-0.93003784,0.17998718,29.50000610,0.30101646
'0:46.125',0.57998230,-0.94001892,0.17998718,29.50000610,0.29803449
'0:46.250',0.57002136,-0.93003784,0.17998718,29.50000610,0.29501166
'0:46.375',0.57998230,-0.93003784,0.17998718,29.50000610,0.29501166
'0:46.500',0.57002136,-0.93003784,0.17998718,29.50000610,0.29501166
'0:46.625',0.57002136,-0.93003784,0.17998718,29.50000610,0.29501166
'0:46.750',0.57002136,-0.93003784,0.17998718,29.50000610,0.29501166
'0:46.875',0.57998230,-0.93003784,0.17998718,29.50000610,0.29501166
'0:47.000',0.57998230,-0.93003784,0.17998718,29.50000610,0.29501166
'0:47.125',0.57998230,-0.93003784,0.17998718,29.50000610,0.29501166
'0:47.250',0.57002136,-0.93003784,0.17998718,29.50000610,0.29501166
'0:47.375',0.57998230,-0.93003784,0.17998718,29.50000610,0.29002808
'0:47.500',0.57998230,-0.93003784,0.17998718,29.50000610,0.29002808
'0:47.625',0.57002136,-0.93003784,0.17998718,29.50000610,0.29002808
'0:47.750',0.57002136,-0.93003784,0.17998718,29.50000610,0.29002808
'0:47.875',0.57998230,-0.93003784,0.17998718,29.50000610,0.29002808
'0:48.000',0.57998230,-0.93003784,0.17998718,29.50000610,0.29002808
'0:48.125',0.57998230,-0.94001892,0.17998718,29.50000610,0.29002808
'0:48.250',0.57998230,-0.93003784,0.17998718,29.50000610,0.29002808
'0:48.375',0.57998230,-0.93003784,0.17998718,29.50000610,0.28802647
'0:48.500',0.57998230,-0.93003784,0.17998718,29.50000610,0.28802647
'0:48.625',0.57998230,-0.93003784,0.17998718,29.50000610,0.28802647
'0:48.750',0.57002136,-0.93003784,0.17998718,29.50000610,0.28500365
'0:48.875',0.57002136,-0.93003784,0.17998718,29.50000610,0.28500365
'0:49.000',0.57002136,-0.93003784,0.17998718,29.50000610,0.28500365
'0:49.125',0.57998230,-0.94001892,0.17998718,29.50000610,0.28500365
'0:49.250',0.57998230,-0.94001892,0.17998718,29.50000610,0.28500365
'0:49.375',0.57998230,-0.94001892,0.17998718,29.50000610,0.28500365
'0:49.500',0.57002136,-0.94001892,0.17998718,29.50000610,0.28500365
'0:49.625',0.57998230,-0.93003784,0.17998718,29.50000610,0.28500365
'0:49.750',0.57002136,-0.93003784,0.17998718,29.50000610,0.28500365
'0:49.875',0.57998230,-0.93003784,0.17998718,29.50000610,0.28500365
'0:50.000',0.57002136,-0.93003784,0.17998718,29.50000610,0.28500365
'0:50.125',0.57998230,-0.93003784,0.17998718,29.50000610,0.28500365
'0:50.250',0.57002136,-0.93003784,0.17998718,29.50000610,0.28202167
'0:50.375',0.57002136,-0.94001892,0.17998718,29.50000610,0.28202167
'0:50.500',0.57002136,-0.93003784,0.17998718,29.50000610,0.28500365
'0:50.625',0.57002136,-0.93003784,0.17998718,29.50000610,0.27903969
'0:50.750',0.57002136,-0.93003784,0.17998718,29.50000610,0.27903969
'0:50.875',0.57002136,-0.93003784,0.17998718,29.50000610,0.27903969
'0:51.000',0.57002136,-0.93003784,0.17998718,29.50000610,0.27903969
'0:51.125',0.57002136,-0.93003784,0.17998718,29.50000610,0.27903969
'0:51.250',0.57002136,-0.93003784,0.17998718,29.50000610,0.27903969
'0:51.375',0.57002136,-0.93003784,0.17998718,29.50000610,0.27903969
'0:51.500',0.57002136,-0.93003784,0.17998718,29.50000610,0.27601686
'0:51.625',0.57002136,-0.93003784,0.17998718,29.50000610,0.27903969
'0:51.750',0.57002136,-0.94001892,0.17998718,29.70002289,0.27601686
'0:51.875',0.57998230,-0.93003784,0.17998718,29.50000610,0.27401526
'0:52.000',0.57002136,-0.93003784,0.17998718,29.50000610,0.27401526
'0:52.125',0.57002136,-0.93003784,0.17998718,29.50000610,0.27401526
'0:52.250',0.57002136,-0.93003784,0.17998718,29.50000610,0.27303488
'0:52.375',0.57002136,-0.93003784,0.17998718,29.50000610,0.27401526
'0:52.500',0.57998230,-0.94001892,0.17998718,29.50000610,0.27401526
'0:52.625',0.57002136,-0.93003784,0.17998718,29.70002289,0.27401526
'0:52.750',0.57002136,-0.94001892,0.17998718,29.50000610,0.27401526
'0:52.875',0.57002136,-0.93003784,0.17998718,29.50000610,0.27303488
'0:53.000',0.57002136,-0.93003784,0.17998718,29.50000610,0.26903168
'0:53.125',0.57002136,-0.93003784,0.18999145,29.50000610,0.27201366
'0:53.250',0.57002136,-0.93003784,0.17998718,29.50000610,0.26903168
'0:53.375',0.57002136,-0.93003784,0.17998718,29.50000610,0.27201366
'0:53.500',0.57998230,-0.93003784,0.17998718,29.50000610,0.27201366
'0:53.625',0.57998230,-0.93003784,0.17998718,29.50000610,0.26903168
'0:53.750',0.57998230,-0.94001892,0.17998718,29.50000610,0.26903168
'0:53.875',0.57998230,-0.93003784,0.17998718,29.70002289,0.26903168
'0:54.000',0.57002136,-0.93003784,0.17998718,29.50000610,0.26903168
'0:54.125',0.57002136,-0.92000946,0.17998718,29.50000610,0.26903168
'0:54.250',0.57002136,-0.94001892,0.17998718,29.50000610,0.26600885
'0:54.375',0.57002136,-0.93003784,0.17998718,29.70002289,0.26302687
'0:54.500',0.57002136,-0.94001892,0.17998718,29.50000610,0.26600885
'0:54.625',0.57998230,-0.93003784,0.17998718,29.50000610,0.26600885
'0:54.750',0.57002136,-0.93003784,0.17998718,29.50000610,0.26302687
'0:54.875',0.57002136,-0.93003784,0.17998718,29.50000610,0.26302687
'0:55.000',0.56002167,-0.93003784,0.17998718,29.50000610,0.26302687
'0:55.125',0.57002136,-0.93003784,0.17998718,29.50000610,0.26302687
'0:55.250',0.57002136,-0.93003784,0.17998718,29.50000610,0.26302687
'0:55.375',0.57002136,-0.93003784,0.17998718,29.50000610,0.26302687
'0:55.500',0.57002136,-0.93003784,0.17998718,29.50000610,0.26302687
'0:55.625',0.57002136,-0.94001892,0.17998718,29.50000610,0.26302687
'0:55.750',0.57002136,-0.94001892,0.17998718,29.70002289,0.26302687
'0:55.875',0.57998230,-0.94001892,0.17998718,29.70002289,0.26000404
'0:56.000',0.57002136,-0.93003784,0.16998291,29.70002289,0.26302687
'0:56.125',0.57002136,-0.94001892,0.17998718,29.70002289,0.26000404
'0:56.250',0.57002136,-0.94001892,0.17998718,29.50000610,0.26000404
'0:56.375',0.57002136,-0.94001892,0.17998718,29.70002289,0.26000404
'0:56.500',0.57998230,-0.93003784,0.17998718,29.70002289,0.26000404
'0:56.625',0.57002136,-0.93003784,0.17998718,29.50000610,0.25800244
'0:56.750',0.57002136,-0.93003784,0.17998718,29.70002289,0.25800244
'0:56.875',0.57002136,-0.94001892,0.17998718,29.70002289,0.25800244
'0:57.000',0.57002136,-0.93003784,0.17998718,29.70002289,0.25800244
'0:57.125',0.57002136,-0.93003784,0.17998718,29.50000610,0.25800244
'0:57.250',0.57002136,-0.93003784,0.17998718,29.70002289,0.25800244
'0:57.375',0.57002136,-0.94001892,0.17998718,29.50000610,0.25800244
'0:57.500',0.57002136,-0.94001892,0.17998718,29.70002289,0.25800244
'0:57.625',0.57002136,-0.93003784,0.17998718,29.70002289,0.25800244
'0:57.750',0.57002136,-0.93003784,0.17998718,29.70002289,0.25800244
'0:57.875',0.57002136,-0.94001892,0.17998718,29.70002289,0.25800244
'0:58.000',0.57002136,-0.93003784,0.17998718,29.70002289,0.25800244
'0:58.125',0.57002136,-0.93003784,0.17998718,29.70002289,0.25800244
'0:58.250',0.57002136,-0.93003784,0.17998718,29.70002289,0.25800244
'0:58.375',0.57002136,-0.93003784,0.17998718,29.70002289,0.25600084
'0:58.500',0.57002136,-0.93003784,0.17998718,29.70002289,0.25301886
'0:58.625',0.57002136,-0.93003784,0.17998718,29.70002289,0.25600084
'0:58.750',0.57002136,-0.93003784,0.17998718,29.70002289,0.25600084
'0:58.875',0.57002136,-0.93003784,0.17998718,29.70002289,0.25301886
'0:59.000',0.57002136,-0.93003784,0.17998718,29.70002289,0.25301886
'0:59.125',0.57002136,-0.93003784,0.17998718,29.70002289,0.25301886
'0:59.250',0.57002136,-0.93003784,0.17998718,29.70002289,0.25301886
'0:59.375',0.57002136,-0.93003784,0.17998718,29.70002289,0.25301886
'0:59.500',0.57002136,-0.93003784,0.17998718,29.70002289,0.25301886
'0:59.625',0.57002136,-0.93003784,0.17998718,29.70002289,0.25101726
'0:59.750',0.57002136,-0.93003784,0.17998718,29.70002289,0.25301886
'0:59.875',0.57002136,-0.93003784,0.17998718,29.70002289,0.25101726
'1:00.000',0.57002136,-0.93003784,0.17998718,29.70002289,0.25101726
'1:00.125',0.57002136,-0.94001892,0.17998718,29.70002289,0.24803528
'1:00.250',0.57002136,-0.93003784,0.17998718,29.70002289,0.25101726
'1:00.375',0.57002136,-0.93003784,0.17998718,29.70002289,0.24803528
'1:00.500',0.57002136,-0.94001892,0.17998718,29.50000610,0.24803528
'1:00.625',0.57002136,-0.93003784,0.17998718,29.70002289,0.24803528
'1:00.750',0.57002136,-0.93003784,0.17998718,29.70002289,0.24803528
'1:00.875',0.57002136,-0.94001892,0.17998718,29.70002289,0.24803528
'1:01.000',0.57002136,-0.94001892,0.17998718,29.70002289,0.24701405
'1:01.125',0.56002167,-0.94001892,0.17998718,29.70002289,0.24803528
'1:01.250',0.57002136,-0.93003784,0.17998718,29.70002289,0.24803528
'1:01.375',0.57002136,-0.93003784,0.17998718,29.70002289,0.24803528
'1:01.500',0.57002136,-0.93003784,0.17998718,29.70002289,0.24803528
'1:01.625',0.57002136,-0.93003784,0.17998718,29.70002289,0.24803528
'1:01.750',0.57002136,-0.94001892,0.17998718,29.70002289,0.24803528
'1:01.875',0.57002136,-0.94001892,0.17998718,29.70002289,0.24803528
'1:02.000',0.57002136,-0.93003784,0.17998718,29.70002289,0.24803528
'1:02.125',0.57002136,-0.93003784,0.17998718,29.70002289,0.24803528
'1:02.250',0.57002136,-0.93003784,0.17998718,29.70002289,0.24803528
'1:02.375',0.57002136,-0.93003784,0.17998718,29.70002289,0.24501245
'1:02.500',0.57002136,-0.94001892,0.17998718,29.70002289,0.24701405
'1:02.625',0.56002167,-0.94001892,0.17998718,29.70002289,0.24301085
'1:02.750',0.57002136,-0.94001892,0.17998718,29.70002289,0.24501245
'1:02.875',0.57002136,-0.93003784,0.17998718,29.70002289,0.24301085
'1:03.000',0.57002136,-0.93003784,0.17998718,29.70002289,0.24501245
'1:03.125',0.57002136,-0.93003784,0.16998291,29.70002289,0.24301085
'1:03.250',0.57002136,-0.94001892,0.17998718,29.70002289,0.24301085
'1:03.375',0.57002136,-0.93003784,0.17998718,29.70002289,0.24301085
'1:03.500',0.57002136,-0.93003784,0.17998718,29.70002289,0.24301085
'1:03.625',0.57002136,-0.93003784,0.17998718,29.70002289,0.24301085
'1:03.750',0.57002136,-0.94001892,0.17998718,29.70002289,0.24301085
'1:03.875',0.57002136,-0.94001892,0.17998718,29.70002289,0.24301085
'1:04.000',0.57002136,-0.93003784,0.17998718,29.70002289,0.24301085
'1:04.125',0.57002136,-0.94001892,0.17998718,29.70002289,0.24301085
'1:04.250',0.57002136,-0.93003784,0.17998718,29.70002289,0.24002887
'1:04.375',0.56002167,-0.94001892,0.17998718,29.70002289,0.23700604
'1:04.500',0.57002136,-0.93003784,0.17998718,29.70002289,0.24002887
'1:04.625',0.57002136,-0.94001892,0.17998718,29.70002289,0.23700604
'1:04.750',0.57002136,-0.94001892,0.17998718,29.70002289,0.23700604
'1:04.875',0.57002136,-0.94001892,0.17998718,29.70002289,0.23700604
'1:05.000',0.56002167,-0.93003784,0.17998718,29.70002289,0.23700604
'1:05.125',0.57002136,-0.93003784,0.17998718,29.70002289,0.23700604
'1:05.250',0.57002136,-0.93003784,0.17998718,29.70002289,0.23700604
'1:05.375',0.56002167,-0.94001892,0.17998718,29.70002289,0.23700604
'1:05.500',0.57002136,-0.94001892,0.17998718,29.70002289,0.23700604
'1:05.625',0.57002136,-0.94001892,0.17998718,29.70002289,0.23700604
'1:05.750',0.56002167,-0.94001892,0.17998718,29.70002289,0.23700604
'1:05.875',0.56002167,-0.93003784,0.17998718,29.70002289,0.23700604
'1:06.000',0.57002136,-0.94001892,0.17998718,29.70002289,0.23700604
'1:06.125',0.57002136,-0.94001892,0.17998718,29.70002289,0.23700604
'1:06.250',0.56002167,-0.93003784,0.17998718,29.70002289,0.23202246
'1:06.375',0.57002136,-0.93003784,0.17998718,29.70002289,0.23500444
'1:06.500',0.57002136,-0.94001892,0.17998718,29.70002289,0.23202246
'1:06.625',0.57002136,-0.94001892,0.17998718,29.70002289,0.23202246
'1:06.750',0.57002136,-0.93003784,0.17998718,29.70002289,0.23202246
'1:06.875',0.57002136,-0.93003784,0.17998718,29.70002289,0.23202246
'1:07.000',0.57002136,-0.94001892,0.17998718,29.70002289,0.23202246
'1:07.125',0.57002136,-0.93003784,0.17998718,29.70002289,0.23202246
'1:07.250',0.57002136,-0.94001892,0.17998718,29.90003967,0.23202246
'1:07.375',0.57002136,-0.93003784,0.17998718,29.70002289,0.23202246
'1:07.500',0.57002136,-0.93003784,0.17998718,29.70002289,0.23202246
'1:07.625',0.57002136,-0.94001892,0.17998718,29.70002289,0.23202246
'1:07.750',0.57002136,-0.93003784,0.17998718,29.70002289,0.23202246
'1:07.875',0.56002167,-0.93003784,0.17998718,29.70002289,0.23202246
'1:08.000',0.57002136,-0.94001892,0.17998718,29.90003967,0.23202246
'1:08.125',0.56002167,-0.94001892,0.17998718,29.70002289,0.23202246
'1:08.250',0.57002136,-0.93003784,0.17998718,29.70002289,0.23202246
'1:08.375',0.57002136,-0.93003784,0.17998718,29.70002289,0.23202246
'1:08.500',0.57002136,-0.94001892,0.17998718,29.90003967,0.23202246
'1:08.625',0.57002136,-0.93003784,0.17998718,29.70002289,0.23202246
'1:08.750',0.56002167,-0.94001892,0.17998718,29.90003967,0.23202246
'1:08.875',0.57002136,-0.93003784,0.17998718,29.90003967,0.23002086
'1:09.000',0.57002136,-0.94001892,0.17998718,29.70002289,0.23002086
'1:09.125',0.57002136,-0.93003784,0.17998718,29.90003967,0.23002086
'1:09.250',0.57002136,-0.94001892,0.17998718,29.70002289,0.23002086
'1:09.375',0.56002167,-0.93003784,0.17998718,29.70002289,0.22703888
'1:09.500',0.57002136,-0.94001892,0.17998718,29.70002289,0.22703888
'1:09.625',0.56002167,-0.93003784,0.17998718,29.90003967,0.22703888
'1:09.750',0.57002136,-0.94001892,0.17998718,29.90003967,0.22703888
'1:09.875',0.57002136,-0.93003784,0.17998718,29.70002289,0.22703888
'1:10.000',0.56002167,-0.93003784,0.17998718,29.90003967,0.22703888
'1:10.125',0.57002136,-0.93003784,0.17998718,29.90003967,0.22703888
'1:10.250',0.57002136,-0.94001892,0.17998718,29.90003967,0.22703888
'1:10.375',0.57002136,-0.93003784,0.17998718,29.90003967,0.22703888
'1:10.500',0.57002136,-0.93003784,0.17998718,29.90003967,0.22703888
'1:10.625',0.56002167,-0.94001892,0.17998718,29.90003967,0.22703888
'1:10.750',0.57002136,-0.93003784,0.17998718,29.90003967,0.22703888
'1:10.875',0.56002167,-0.94001892,0.17998718,29.90003967,0.22703888
'1:11.000',0.57002136,-0.94001892,0.17998718,29.90003967,0.22503728
'1:11.125',0.57002136,-0.93003784,0.17998718,29.90003967,0.22201445
'1:11.250',0.56002167,-0.93003784,0.17998718,29.90003967,0.22503728
'1:11.375',0.57002136,-0.93003784,0.17998718,29.90003967,0.22201445
'1:11.500',0.57002136,-0.94001892,0.17998718,29.90003967,0.22201445
'1:11.625',0.57002136,-0.94001892,0.17998718,29.90003967,0.22201445
'1:11.750',0.57002136,-0.94001892,0.17998718,29.70002289,0.22201445
'1:11.875',0.57002136,-0.93003784,0.17998718,29.90003967,0.22201445
'1:12.000',0.57002136,-0.93003784,0.17998718,29.90003967,0.22201445
'1:12.125',0.56002167,-0.94001892,0.17998718,29.90003967,0.22201445
'1:12.250',0.56002167,-0.93003784,0.17998718,29.90003967,0.22201445
'1:12.375',0.56002167,-0.94001892,0.17998718,29.90003967,0.22201445
'1:12.500',0.57002136,-0.93003784,0.17998718,29.90003967,0.22201445
'1:12.625',0.57002136,-0.93003784,0.17998718,29.90003967,0.22201445
'1:12.750',0.57002136,-0.94001892,0.17998718,29.90003967,0.22201445
'1:12.875',0.57002136,-0.93003784,0.17998718,29.70002289,0.22201445
'1:13.000',0.56002167,-0.93003784,0.17998718,29.90003967,0.22001285
'1:13.125',0.57002136,-0.94001892,0.17998718,29.90003967,0.22001285
'1:13.250',0.57002136,-0.93003784,0.17998718,29.90003967,0.22001285
'1:13.375',0.57002136,-0.93003784,0.17998718,29.90003967,0.22001285
'1:13.500',0.57002136,-0.93003784,0.17998718,29.90003967,0.21703087
'1:13.625',0.57002136,-0.94001892,0.17998718,29.90003967,0.22001285
'1:13.750',0.56002167,-0.94001892,0.17998718,29.90003967,0.22001285
'1:13.875',0.57002136,-0.94001892,0.17998718,29.90003967,0.21703087
'1:14.000',0.56002167,-0.94001892,0.17998718,29.90003967,0.21703087
'1:14.125',0.57002136,-0.94001892,0.17998718,29.90003967,0.21703087
'1:14.250',0.57002136,-0.93003784,0.17998718,29.90003967,0.21703087
'1:14.375',0.57002136,-0.94001892,0.17998718,29.90003967,0.21703087
'1:14.500',0.56002167,-0.94001892,0.17998718,29.90003967,0.21703087
'1:14.625',0.56002167,-0.94001892,0.17998718,29.90003967,0.21703087
'1:14.750',0.57002136,-0.93003784,0.17998718,29.90003967,0.21703087
'1:14.875',0.57002136,-0.94001892,0.17998718,29.90003967,0.21502927
'1:15.000',0.56002167,-0.94001892,0.17998718,29.90003967,0.21502927
'1:15.125',0.56002167,-0.94001892,0.17998718,29.90003967,0.21703087
'1:15.250',0.57002136,-0.94001892,0.17998718,29.90003967,0.21502927
'1:15.375',0.56002167,-0.93003784,0.17998718,29.90003967,0.21502927
'1:15.500',0.57002136,-0.94001892,0.17998718,29.90003967,0.21502927
'1:15.625',0.56002167,-0.94001892,0.17998718,29.90003967,0.21200644
'1:15.750',0.56002167,-0.93003784,0.17998718,29.90003967,0.21502927
'1:15.875',0.57002136,-0.93003784,0.17998718,29.90003967,0.21502927
'1:16.000',0.56002167,-0.94001892,0.17998718,29.90003967,0.21200644
'1:16.125',0.56002167,-0.94001892,0.17998718,29.90003967,0.21200644
'1:16.250',0.56002167,-0.94001892,0.17998718,29.90003967,0.21200644
'1:16.375',0.57002136,-0.93003784,0.17998718,29.90003967,0.21200644
'1:16.500',0.56002167,-0.94001892,0.17998718,29.90003967,0.21200644
'1:16.625',0.57002136,-0.94001892,0.17998718,29.90003967,0.21200644
'1:16.750',0.57002136,-0.94001892,0.17998718,29.90003967,0.21200644
'1:16.875',0.56002167,-0.94001892,0.17998718,29.90003967,0.21200644
'1:17.000',0.57002136,-0.94001892,0.17998718,29.90003967,0.21200644
'1:17.125',0.57002136,-0.94001892,0.18999145,29.90003967,0.21200644
'1:17.250',0.57002136,-0.93003784,0.17998718,29.90003967,0.21200644
'1:17.375',0.57002136,-0.94001892,0.17998718,29.90003967,0.21200644
'1:17.500',0.56002167,-0.94001892,0.17998718,29.90003967,0.21200644
'1:17.625',0.57002136,-0.94001892,0.17998718,29.90003967,0.21200644
'1:17.750',0.56002167,-0.93003784,0.17998718,29.90003967,0.21200644
'1:17.875',0.57002136,-0.94001892,0.17998718,29.90003967,0.21200644
'1:18.000',0.56002167,-0.93003784,0.17998718,29.90003967,0.20902446
'1:18.125',0.56002167,-0.94001892,0.17998718,29.90003967,0.21200644
'1:18.250',0.57002136,-0.94001892,0.17998718,29.90003967,0.21200644
'1:18.375',0.57002136,-0.94001892,0.17998718,29.90003967,0.20902446
'1:18.500',0.57002136,-0.94001892,0.17998718,29.90003967,0.21200644
'1:18.625',0.56002167,-0.94001892,0.17998718,29.90003967,0.21200644
'1:18.750',0.57002136,-0.94001892,0.17998718,29.90003967,0.21200644
'1:18.875',0.57002136,-0.93003784,0.17998718,29.90003967,0.20902446
'1:19.000',0.57002136,-0.93003784,0.17998718,29.90003967,0.20702286
'1:19.125',0.56002167,-0.93003784,0.17998718,29.90003967,0.20902446
'1:19.250',0.56002167,-0.94001892,0.17998718,29.90003967,0.20702286
'1:19.375',0.57002136,-0.94001892,0.17998718,29.90003967,0.20702286
'1:19.500',0.57002136,-0.94001892,0.17998718,29.90003967,0.20702286
'1:19.625',0.57002136,-0.94001892,0.17998718,29.90003967,0.20702286
'1:19.750',0.57002136,-0.94001892,0.17998718,29.90003967,0.20702286
'1:19.875',0.56002167,-0.94001892,0.17998718,29.90003967,0.20702286
'1:20.000',0.57002136,-0.94001892,0.17998718,29.90003967,0.20702286
'1:20.125',0.57002136,-0.93003784,0.17998718,29.90003967,0.20702286
'1:20.250',0.57002136,-0.93003784,0.17998718,29.90003967,0.20702286
'1:20.375',0.57002136,-0.94001892,0.17998718,29.90003967,0.20702286
'1:20.500',0.57002136,-0.94001892,0.17998718,29.90003967,0.20702286
'1:20.625',0.56002167,-0.93003784,0.17998718,29.90003967,0.20702286
'1:20.750',0.57002136,-0.93003784,0.17998718,29.90003967,0.20702286
'1:20.875',0.56002167,-0.93003784,0.17998718,29.90003967,0.20702286
'1:21.000',0.57002136,-0.94001892,0.17998718,29.90003967,0.20702286
'1:21.125',0.56002167,-0.93003784,0.17998718,29.90003967,0.20702286
'1:21.250',0.56002167,-0.94001892,0.17998718,29.90003967,0.20702286
'1:21.375',0.57002136,-0.93003784,0.17998718,29.90003967,0.20702286
'1:21.500',0.56002167,-0.94001892,0.17998718,29.90003967,0.20400003
'1:21.625',0.57002136,-0.94001892,0.17998718,29.90003967,0.20502126
'1:21.750',0.57002136,-0.94001892,0.17998718,29.90003967,0.20203928
'1:21.875',0.56002167,-0.93003784,0.18999145,29.90003967,0.20400003
'1:22.000',0.57002136,-0.94001892,0.17998718,29.90003967,0.20203928
'1:22.125',0.56002167,-0.93003784,0.17998718,29.90003967,0.20203928
'1:22.250',0.57002136,-0.93003784,0.17998718,29.90003967,0.20203928
'1:22.375',0.57002136,-0.94001892,0.17998718,29.90003967,0.20203928
'1:22.500',0.56002167,-0.94001892,0.17998718,29.90003967,0.20203928
'1:22.625',0.57002136,-0.93003784,0.17998718,29.90003967,0.20203928
'1:22.750',0.56002167,-0.94001892,0.17998718,29.90003967,0.20203928
'1:22.875',0.56002167,-0.94001892,0.17998718,29.90003967,0.20203928
'1:23.000',0.57002136,-0.93003784,0.17998718,29.90003967,0.20203928
'1:23.125',0.57002136,-0.94001892,0.17998718,29.90003967,0.20203928
'1:23.250',0.56002167,-0.94001892,0.16998291,29.90003967,0.20203928
'1:23.375',0.57002136,-0.93003784,0.17998718,29.90003967,0.20203928
'1:23.500',0.56002167,-0.94001892,0.17998718,29.90003967,0.20203928
'1:23.625',0.57002136,-0.94001892,0.17998718,29.90003967,0.20203928
'1:23.750',0.57002136,-0.93003784,0.17998718,29.90003967,0.20003768
'1:23.875',0.57002136,-0.93003784,0.17998718,29.90003967,0.20203928
'1:24.000',0.56002167,-0.94001892,0.17998718,29.90003967,0.20003768
'1:24.125',0.56002167,-0.94001892,0.17998718,29.90003967,0.20003768
'1:24.250',0.57002136,-0.94001892,0.17998718,29.90003967,0.20003768
'1:24.375',0.57002136,-0.94001892,0.17998718,29.90003967,0.20003768
'1:24.500',0.56002167,-0.94001892,0.17998718,29.90003967,0.20003768
'1:24.625',0.57002136,-0.94001892,0.16998291,29.90003967,0.20003768
'1:24.750',0.56002167,-0.94001892,0.17998718,29.90003967,0.19701485
'1:24.875',0.57002136,-0.94001892,0.17998718,29.90003967,0.19701485
'1:25.000',0.56002167,-0.94001892,0.17998718,29.90003967,0.19701485
'1:25.125',0.57002136,-0.94001892,0.17998718,29.90003967,0.20003768
'1:25.250',0.56002167,-0.94001892,0.17998718,29.90003967,0.19701485
'1:25.375',0.56002167,-0.94001892,0.17998718,29.90003967,0.19701485
'1:25.500',0.56002167,-0.95000000,0.17998718,29.90003967,0.19701485
'1:25.625',0.55002197,-0.94001892,0.17998718,29.90003967,0.19701485
'1:25.750',0.56002167,-0.94001892,0.18999145,29.90003967,0.19701485
'1:25.875',0.56002167,-0.94001892,0.17998718,30.10005646,0.19701485
'1:26.000',0.56002167,-0.94001892,0.17998718,29.90003967,0.19701485
'1:26.125',0.56002167,-0.94001892,0.17998718,29.90003967,0.19701485
'1:26.250',0.56002167,-0.94001892,0.17998718,29.90003967,0.19701485
'1:26.375',0.56002167,-0.94001892,0.17998718,29.90003967,0.19701485
'1:26.500',0.56002167,-0.93003784,0.17998718,29.90003967,0.19701485
'1:26.625',0.56002167,-0.94001892,0.17998718,29.90003967,0.19701485
'1:26.750',0.56002167,-0.94001892,0.17998718,29.90003967,0.19701485
'1:26.875',0.56002167,-0.94001892,0.17998718,30.10005646,0.19701485
'1:27.000',0.56002167,-0.94001892,0.17998718,29.90003967,0.19501325
'1:27.125',0.56002167,-0.94001892,0.17998718,29.90003967,0.19701485
'1:27.250',0.57002136,-0.94001892,0.17998718,29.90003967,0.19701485
'1:27.375',0.56002167,-0.93003784,0.17998718,29.90003967,0.19501325
'1:27.500',0.56002167,-0.93003784,0.17998718,30.10005646,0.19701485
'1:27.625',0.56002167,-0.94001892,0.17998718,30.10005646,0.19701485
'1:27.750',0.56002167,-0.94001892,0.17998718,29.90003967,0.19501325
'1:27.875',0.56002167,-0.93003784,0.17998718,29.90003967,0.19701485
'1:28.000',0.56002167,-0.93003784,0.17998718,29.90003967,0.19501325
'1:28.125',0.56002167,-0.94001892,0.17998718,29.90003967,0.19501325
'1:28.250',0.57002136,-0.94001892,0.17998718,30.10005646,0.19701485
'1:28.375',0.56002167,-0.94001892,0.17998718,29.90003967,0.19403287
'1:28.500',0.56002167,-0.94001892,0.17998718,30.10005646,0.19501325
'1:28.625',0.57002136,-0.94001892,0.17998718,29.90003967,0.19203127
'1:28.750',0.56002167,-0.94001892,0.17998718,29.90003967,0.19501325
'1:28.875',0.56002167,-0.94001892,0.17998718,29.90003967,0.19501325
'1:29.000',0.56002167,-0.94001892,0.17998718,30.10005646,0.19203127
'1:29.125',0.56002167,-0.94001892,0.17998718,30.10005646,0.19203127
'1:29.250',0.56002167,-0.94001892,0.17998718,29.90003967,0.19203127
'1:29.375',0.55002197,-0.94001892,0.17998718,29.90003967,0.19203127
'1:29.500',0.57002136,-0.94001892,0.17998718,29.90003967,0.19203127
'1:29.625',0.57002136,-0.94001892,0.17998718,30.10005646,0.19203127
'1:29.750',0.57002136,-0.94001892,0.17998718,30.10005646,0.19203127
'1:29.875',0.56002167,-0.94001892,0.17998718,30.10005646,0.19203127
'1:30.000',0.56002167,-0.94001892,0.17998718,29.90003967,0.19203127
'1:30.125',0.56002167,-0.95000000,0.17998718,29.90003967,0.19203127
'1:30.250',0.56002167,-0.94001892,0.17998718,30.10005646,0.19203127
'1:30.375',0.57002136,-0.94001892,0.17998718,29.90003967,0.19002966
'1:30.500',0.56002167,-0.93003784,0.17998718,30.10005646,0.19203127
'1:30.625',0.57002136,-0.94001892,0.17998718,29.90003967,0.19203127
'1:30.750',0.56002167,-0.94001892,0.17998718,30.10005646,0.19203127
'1:30.875',0.57002136,-0.94001892,0.17998718,30.10005646,0.19203127
'1:31.000',0.56002167,-0.94001892,0.17998718,29.90003967,0.19002966
'1:31.125',0.56002167,-0.94001892,0.17998718,29.90003967,0.19203127
'1:31.250',0.57002136,-0.94001892,0.17998718,29.90003967,0.19002966
'1:31.375',0.56002167,-0.94001892,0.17998718,29.90003967,0.18900844
'1:31.500',0.56002167,-0.94001892,0.17998718,29.90003967,0.19002966
'1:31.625',0.56002167,-0.94001892,0.17998718,30.10005646,0.18700684
'1:31.750',0.56002167,-0.94001892,0.17998718,30.10005646,0.18700684
'1:31.875',0.56002167,-0.94001892,0.17998718,29.90003967,0.18700684
'1:32.000',0.56002167,-0.94001892,0.17998718,30.10005646,0.18700684
'1:32.125',0.56002167,-0.94001892,0.17998718,30.10005646,0.18700684
'1:32.250',0.56002167,-0.93003784,0.17998718,30.10005646,0.18700684
'1:32.375',0.56002167,-0.94001892,0.18999145,30.10005646,0.18700684
'1:32.500',0.56002167,-0.94001892,0.17998718,30.10005646,0.18700684
'1:32.625',0.56002167,-0.94001892,0.17998718,30.10005646,0.18700684
'1:32.750',0.56002167,-0.94001892,0.17998718,29.90003967,0.18700684
'1:32.875',0.56002167,-0.93003784,0.17998718,30.10005646,0.18700684
'1:33.000',0.56002167,-0.94001892,0.17998718,30.10005646,0.18700684
'1:33.125',0.56002167,-0.94001892,0.17998718,29.90003967,0.18700684
'1:33.250',0.55002197,-0.94001892,0.17998718,30.10005646,0.18700684
'1:33.375',0.56002167,-0.93003784,0.17998718,30.10005646,0.18700684
'1:33.500',0.56002167,-0.94001892,0.17998718,30.10005646,0.18700684
'1:33.625',0.56002167,-0.94001892,0.17998718,30.10005646,0.18700684
'1:33.750',0.56002167,-0.94001892,0.17998718,30.10005646,0.18500523
'1:33.875',0.57002136,-0.93003784,0.17998718,30.10005646,0.18700684
'1:34.000',0.56002167,-0.94001892,0.17998718,30.10005646,0.18700684
'1:34.125',0.56002167,-0.94001892,0.17998718,30.10005646,0.18500523
'1:34.250',0.56002167,-0.94001892,0.17998718,30.10005646,0.18500523
'1:34.375',0.57002136,-0.94001892,0.17998718,30.10005646,0.18500523
'1:34.500',0.55002197,-0.94001892,0.17998718,30.10005646,0.18500523
'1:34.625',0.56002167,-0.93003784,0.17998718,30.10005646,0.18500523
'1:34.750',0.56002167,-0.93003784,0.18999145,30.10005646,0.18202326
'1:34.875',0.56002167,-0.93003784,0.17998718,30.10005646,0.18300363
'1:35.000',0.56002167,-0.94001892,0.17998718,30.10005646,0.18300363
'1:35.125',0.56002167,-0.94001892,0.17998718,30.10005646,0.18300363
'1:35.250',0.56002167,-0.94001892,0.17998718,30.10005646,0.18300363
'1:35.375',0.56002167,-0.94001892,0.17998718,30.10005646,0.18202326
'1:35.500',0.56002167,-0.93003784,0.17998718,30.10005646,0.18300363
'1:35.625',0.56002167,-0.94001892,0.17998718,30.10005646,0.18202326
'1:35.750',0.56002167,-0.94001892,0.17998718,30.10005646,0.18300363
'1:35.875',0.56002167,-0.94001892,0.17998718,30.10005646,0.18300363
'1:36.000',0.57002136,-0.94001892,0.17998718,30.10005646,0.18300363
'1:36.125',0.56002167,-0.94001892,0.17998718,30.10005646,0.18300363
'1:36.250',0.56002167,-0.94001892,0.17998718,30.10005646,0.18300363
'1:36.375',0.56002167,-0.94001892,0.17998718,30.10005646,0.18202326
'1:36.500',0.56002167,-0.94001892,0.17998718,30.10005646,0.18300363
'1:36.625',0.56002167,-0.94001892,0.17998718,30.10005646,0.18300363
'1:36.750',0.56002167,-0.94001892,0.17998718,30.10005646,0.18300363
'1:36.875',0.57002136,-0.93003784,0.17998718,30.10005646,0.18300363
'1:37.000',0.56002167,-0.94001892,0.16998291,30.10005646,0.18300363
'1:37.125',0.56002167,-0.94001892,0.17998718,30.10005646,0.18300363
'1:37.250',0.56002167,-0.94001892,0.17998718,30.10005646,0.18202326
'1:37.375',0.57002136,-0.94001892,0.17998718,30.10005646,0.18002165
'1:37.500',0.56002167,-0.94001892,0.17998718,30.10005646,0.18300363
'1:37.625',0.56002167,-0.94001892,0.17998718,30.10005646,0.18300363
'1:37.750',0.57002136,-0.94001892,0.17998718,30.10005646,0.18300363
'1:37.875',0.56002167,-0.94001892,0.17998718,30.10005646,0.18300363
'1:38.000',0.56002167,-0.94001892,0.17998718,30.10005646,0.18002165
'1:38.125',0.56002167,-0.94001892,0.17998718,30.10005646,0.18002165
'1:38.250',0.56002167,-0.94001892,0.17998718,30.10005646,0.18002165
'1:38.375',0.55002197,-0.94001892,0.17998718,30.10005646,0.18300363
'1:38.500',0.56002167,-0.94001892,0.17998718,30.10005646,0.18300363
'1:38.625',0.56002167,-0.94001892,0.17998718,30.10005646,0.18002165
'1:38.750',0.56002167,-0.94001892,0.17998718,30.10005646,0.18002165
'1:38.875',0.56002167,-0.93003784,0.17998718,30.10005646,0.18002165
'1:39.000',0.56002167,-0.94001892,0.17998718,30.10005646,0.17802005
'1:39.125',0.57002136,-0.94001892,0.17998718,30.10005646,0.18002165
'1:39.250',0.56002167,-0.94001892,0.17998718,30.10005646,0.18002165
'1:39.375',0.56002167,-0.94001892,0.17998718,30.10005646,0.18002165
'1:39.500',0.56002167,-0.94001892,0.17998718,30.10005646,0.18002165
'1:39.625',0.56002167,-0.93003784,0.17998718,30.10005646,0.17802005
'1:39.750',0.56002167,-0.93003784,0.17998718,30.10005646,0.17703967
'1:39.875',0.56002167,-0.94001892,0.17998718,30.10005646,0.17802005
'1:40.000',0.56002167,-0.94001892,0.17998718,30.10005646,0.17802005
'1:40.125',0.56002167,-0.93003784,0.17998718,30.10005646,0.17703967
'1:40.250',0.57002136,-0.93003784,0.17998718,30.10005646,0.17802005
'1:40.375',0.57002136,-0.94001892,0.17998718,30.10005646,0.17802005
'1:40.500',0.56002167,-0.94001892,0.17998718,30.10005646,0.17703967
'1:40.625',0.56002167,-0.94001892,0.17998718,30.10005646,0.17802005
'1:40.750',0.57002136,-0.94001892,0.17998718,30.10005646,0.17503807
'1:40.875',0.56002167,-0.94001892,0.17998718,30.10005646,0.17802005
'1:41.000',0.56002167,-0.94001892,0.17998718,30.10005646,0.17802005
'1:41.125',0.56002167,-0.94001892,0.17998718,30.10005646,0.17703967
'1:41.250',0.56002167,-0.94001892,0.17998718,30.10005646,0.17802005
'1:41.375',0.56002167,-0.94001892,0.17998718,30.10005646,0.17802005
'1:41.500',0.56002167,-0.94001892,0.17998718,30.10005646,0.17802005
'1:41.625',0.56002167,-0.94001892,0.17998718,30.10005646,0.17703967
'1:41.750',0.56002167,-0.94001892,0.17998718,30.10005646,0.17802005
'1:41.875',0.56002167,-0.94001892,0.17998718,30.10005646,0.17503807
'1:42.000',0.56002167,-0.94001892,0.17998718,30.10005646,0.17503807
'1:42.125',0.56002167,-0.94001892,0.16998291,30.10005646,0.17802005
'1:42.250',0.56002167,-0.94001892,0.17998718,30.10005646,0.17703967
'1:42.375',0.56002167,-0.94001892,0.17998718,30.10005646,0.17303647
'1:42.500',0.56002167,-0.94001892,0.17998718,30.10005646,0.17503807
'1:42.625',0.56002167,-0.94001892,0.17998718,30.10005646,0.17303647
'1:42.750',0.56002167,-0.94001892,0.17998718,30.10005646,0.17503807
'1:42.875',0.56002167,-0.94001892,0.17998718,30.10005646,0.17303647
'1:43.000',0.56002167,-0.94001892,0.17998718,30.10005646,0.17201524
'1:43.125',0.56002167,-0.94001892,0.17998718,30.10005646,0.17201524
'1:43.250',0.56002167,-0.94001892,0.17998718,30.10005646,0.17201524
'1:43.375',0.56002167,-0.94001892,0.17998718,30.10005646,0.17303647
'1:43.500',0.57002136,-0.94001892,0.17998718,30.10005646,0.17303647
'1:43.625',0.56002167,-0.94001892,0.17998718,30.10005646,0.17303647
'1:43.750',0.56002167,-0.93003784,0.17998718,30.10005646,0.17303647
'1:43.875',0.56002167,-0.94001892,0.17998718,30.10005646,0.17201524
'1:44.000',0.55002197,-0.94001892,0.17998718,30.10005646,0.17303647
'1:44.125',0.56002167,-0.93003784,0.17998718,30.10005646,0.17303647
'1:44.250',0.56002167,-0.94001892,0.17998718,30.10005646,0.17303647
'1:44.375',0.56002167,-0.94001892,0.17998718,30.10005646,0.17201524
'1:44.500',0.56002167,-0.94001892,0.17998718,30.10005646,0.17303647
'1:44.625',0.56002167,-0.94001892,0.17998718,30.10005646,0.17201524
'1:44.750',0.56002167,-0.94001892,0.17998718,30.10005646,0.17201524
'1:44.875',0.57002136,-0.94001892,0.17998718,30.10005646,0.17303647
'1:45.000',0.56002167,-0.93003784,0.17998718,30.10005646,0.17303647
'1:45.125',0.56002167,-0.93003784,0.17998718,30.10005646,0.17303647
'1:45.250',0.56002167,-0.94001892,0.17998718,30.10005646,0.17303647
'1:45.375',0.56002167,-0.94001892,0.17998718,30.10005646,0.17201524
'1:45.500',0.56002167,-0.94001892,0.17998718,30.10005646,0.17201524
'1:45.625',0.56002167,-0.94001892,0.17998718,30.10005646,0.17201524
'1:45.750',0.56002167,-0.94001892,0.17998718,30.10005646,0.17303647
'1:45.875',0.56002167,-0.95000000,0.17998718,30.10005646,0.17303647
'1:46.000',0.56002167,-0.94001892,0.17998718,30.10005646,0.17303647
'1:46.125',0.56002167,-0.94001892,0.17998718,30.10005646,0.16801204
'1:46.250',0.56002167,-0.93003784,0.17998718,30.10005646,0.17303647
'1:46.375',0.56002167,-0.94001892,0.17998718,30.10005646,0.17201524
'1:46.500',0.56002167,-0.94001892,0.17998718,30.10005646,0.17001364
'1:46.625',0.56002167,-0.94001892,0.17998718,30.10005646,0.16801204
'1:46.750',0.57002136,-0.94001892,0.17998718,30.10005646,0.17103487
'1:46.875',0.55002197,-0.93003784,0.17998718,30.10005646,0.17103487
'1:47.000',0.56002167,-0.94001892,0.17998718,30.10005646,0.17103487
'1:47.125',0.56002167,-0.94001892,0.17998718,30.10005646,0.17001364
'1:47.250',0.56002167,-0.94001892,0.17998718,30.10005646,0.16801204
'1:47.375',0.56002167,-0.93003784,0.17998718,30.10005646,0.16801204
'1:47.500',0.56002167,-0.94001892,0.17998718,30.10005646,0.17103487
'1:47.625',0.57002136,-0.94001892,0.17998718,30.40005188,0.16801204
'1:47.750',0.56002167,-0.94001892,0.17998718,30.40005188,0.16801204
'1:47.875',0.56002167,-0.94001892,0.17998718,30.10005646,0.16801204
'1:48.000',0.57002136,-0.94001892,0.17998718,30.10005646,0.16801204
'1:48.125',0.56002167,-0.94001892,0.17998718,30.40005188,0.16801204
'1:48.250',0.56002167,-0.94001892,0.17998718,30.40005188,0.16801204
'1:48.375',0.56002167,-0.94001892,0.17998718,30.40005188,0.16801204
'1:48.500',0.57002136,-0.94001892,0.17998718,30.10005646,0.16801204
'1:48.625',0.56002167,-0.94001892,0.17998718,30.10005646,0.16801204
'1:48.750',0.56002167,-0.94001892,0.17998718,30.10005646,0.16801204
'1:48.875',0.56002167,-0.93003784,0.17998718,30.40005188,0.16801204
'1:49.000',0.56002167,-0.94001892,0.17998718,30.40005188,0.16801204
'1:49.125',0.55002197,-0.94001892,0.17998718,30.10005646,0.16801204
'1:49.250',0.56002167,-0.94001892,0.17998718,30.40005188,0.16801204
'1:49.375',0.56002167,-0.94001892,0.17998718,30.40005188,0.16601044
'1:49.500',0.56002167,-0.94001892,0.17998718,30.10005646,0.16503006
'1:49.625',0.55002197,-0.94001892,0.17998718,30.40005188,0.16801204
'1:49.750',0.56002167,-0.94001892,0.17998718,30.10005646,0.16801204
'1:49.875',0.56002167,-0.94001892,0.17998718,30.40005188,0.16801204
'1:50.000',0.56002167,-0.94001892,0.17998718,30.10005646,0.16503006
'1:50.125',0.56002167,-0.94001892,0.17998718,30.40005188,0.16601044
'1:50.250',0.56002167,-0.94001892,0.17998718,30.40005188,0.16601044
'1:50.375',0.56002167,-0.94001892,0.17998718,30.40005188,0.16801204
'1:50.500',0.56002167,-0.94001892,0.17998718,30.60000916,0.16503006
'1:50.625',0.56002167,-0.94001892,0.16998291,30.60000916,0.16601044
'1:50.750',0.55002197,-0.94001892,0.17998718,30.60000916,0.16601044
'1:50.875',0.56002167,-0.94001892,0.16998291,30.40005188,0.16503006
'1:51.000',0.56002167,-0.94001892,0.17998718,30.40005188,0.16503006
'1:51.125',0.56002167,-0.94001892,0.17998718,30.40005188,0.16601044
'1:51.250',0.57002136,-0.94001892,0.17998718,30.40005188,0.16302846
'1:51.375',0.56002167,-0.94001892,0.17998718,30.40005188,0.16302846
'1:51.500',0.56002167,-0.94001892,0.17998718,30.40005188,0.16601044
'1:51.625',0.57002136,-0.94001892,0.17998718,30.40005188,0.16302846
'1:51.750',0.55002197,-0.93003784,0.17998718,30.40005188,0.16601044
'1:51.875',0.56002167,-0.94001892,0.17998718,30.40005188,0.16601044
'1:52.000',0.56002167,-0.94001892,0.17998718,30.40005188,0.16302846
'1:52.125',0.56002167,-0.94001892,0.17998718,30.40005188,0.16601044
'1:52.250',0.57002136,-0.93003784,0.17998718,30.40005188,0.16601044
'1:52.375',0.56002167,-0.94001892,0.17998718,30.40005188,0.16302846
'1:52.500',0.56002167,-0.94001892,0.17998718,30.40005188,0.16302846
'1:52.625',0.56002167,-0.94001892,0.17998718,30.40005188,0.16302846
'1:52.750',0.56002167,-0.94001892,0.17998718,30.40005188,0.16302846
'1:52.875',0.57002136,-0.94001892,0.17998718,30.40005188,0.16302846
'1:53.000',0.56002167,-0.94001892,0.17998718,30.40005188,0.16302846
'1:53.125',0.55002197,-0.94001892,0.17998718,30.40005188,0.16302846
'1:53.250',0.56002167,-0.94001892,0.17998718,30.40005188,0.16302846
'1:53.375',0.55002197,-0.94001892,0.17998718,30.40005188,0.16302846
'1:53.500',0.57002136,-0.95000000,0.17998718,30.10005646,0.16302846
'1:53.625',0.56002167,-0.94001892,0.17998718,30.40005188,0.16302846
'1:53.750',0.56002167,-0.93003784,0.17998718,30.40005188,0.16302846
'1:53.875',0.56002167,-0.94001892,0.17998718,30.40005188,0.16302846
'1:54.000',0.56002167,-0.94001892,0.17998718,30.40005188,0.16302846
'1:54.125',0.56002167,-0.94001892,0.17998718,30.40005188,0.16302846
'1:54.250',0.56002167,-0.95000000,0.17998718,30.40005188,0.16302846
'1:54.375',0.56002167,-0.94001892,0.17998718,30.40005188,0.16302846
'1:54.500',0.56002167,-0.93003784,0.17998718,30.40005188,0.16302846
'1:54.625',0.56002167,-0.94001892,0.17998718,30.40005188,0.16302846
'1:54.750',0.56002167,-0.94001892,0.17998718,30.40005188,0.16302846
'1:54.875',0.56002167,-0.94001892,0.17998718,30.40005188,0.16302846
'1:55.000',0.56002167,-0.94001892,0.17998718,30.40005188,0.16302846
'1:55.125',0.56002167,-0.93003784,0.17998718,30.40005188,0.16302846
'1:55.250',0.56002167,-0.94001892,0.17998718,30.40005188,0.16302846
'1:55.375',0.56002167,-0.94001892,0.17998718,30.40005188,0.16302846
'1:55.500',0.56002167,-0.94001892,0.17998718,30.40005188,0.16302846
'1:55.625',0.56002167,-0.94001892,0.17998718,30.40005188,0.16302846
'1:55.750',0.56002167,-0.94001892,0.17998718,30.40005188,0.16302846
'1:55.875',0.56002167,-0.94001892,0.17998718,30.40005188,0.16302846
'1:56.000',0.56002167,-0.94001892,0.17998718,30.40005188,0.16302846
'1:56.125',0.56002167,-0.93003784,0.17998718,30.40005188,0.16302846
'1:56.250',0.55002197,-0.94001892,0.17998718,30.40005188,0.16302846
'1:56.375',0.56002167,-0.94001892,0.17998718,30.40005188,0.16302846
'1:56.500',0.56002167,-0.94001892,0.17998718,30.40005188,0.16302846
'1:56.625',0.56002167,-0.94001892,0.17998718,30.40005188,0.16302846
'1:56.750',0.56002167,-0.94001892,0.17998718,30.40005188,0.16302846
'1:56.875',0.57002136,-0.94001892,0.17998718,30.40005188,0.16302846
'1:57.000',0.56002167,-0.94001892,0.17998718,30.40005188,0.16302846
'1:57.125',0.56002167,-0.94001892,0.17998718,30.40005188,0.16302846
'1:57.250',0.55002197,-0.95000000,0.17998718,30.40005188,0.16102686
'1:57.375',0.55002197,-0.94001892,0.17998718,30.40005188,0.16102686
'1:57.500',0.56002167,-0.94001892,0.17998718,30.40005188,0.16302846
'1:57.625',0.56002167,-0.94001892,0.17998718,30.40005188,0.16302846
'1:57.750',0.56002167,-0.94001892,0.17998718,30.40005188,0.16102686
'1:57.875',0.56002167,-0.94001892,0.17998718,30.40005188,0.16102686
'1:58.000',0.56002167,-0.94001892,0.17998718,30.40005188,0.16102686
'1:58.125',0.56002167,-0.94001892,0.17998718,30.40005188,0.16102686
'1:58.250',0.57002136,-0.94001892,0.18999145,30.40005188,0.16102686
'1:58.375',0.56002167,-0.94001892,0.17998718,30.40005188,0.16102686
'1:58.500',0.56002167,-0.94001892,0.17998718,30.40005188,0.16000563
'1:58.625',0.56002167,-0.94001892,0.17998718,30.40005188,0.16102686
'1:58.750',0.57002136,-0.94001892,0.17998718,30.40005188,0.16102686
'1:58.875',0.56002167,-0.94001892,0.17998718,30.40005188,0.15800403
'1:59.000',0.56002167,-0.94001892,0.17998718,30.40005188,0.15800403
'1:59.125',0.56002167,-0.94001892,0.17998718,30.40005188,0.15800403
'1:59.250',0.56002167,-0.94001892,0.17998718,30.40005188,0.15800403
'1:59.375',0.56002167,-0.94001892,0.17998718,30.40005188,0.15800403
'1:59.500',0.56002167,-0.94001892,0.17998718,30.40005188,0.15800403
'1:59.625',0.56002167,-0.94001892,0.17998718,30.40005188,0.15800403
'1:59.750',0.56002167,-0.94001892,0.17998718,30.40005188,0.15800403
'1:59.875',0.55002197,-0.94001892,0.17998718,30.40005188,0.16102686
'2:00.000',0.56002167,-0.94001892,0.17998718,30.40005188,0.15800403
'2:00.125',0.56002167,-0.94001892,0.17998718,30.40005188,0.15800403
'2:00.250',0.56002167,-0.94001892,0.17998718,30.40005188,0.15800403
'2:00.375',0.56002167,-0.94001892,0.17998718,30.40005188,0.15800403
'2:00.500',0.56002167,-0.94001892,0.17998718,30.40005188,0.15800403
'2:00.625',0.56002167,-0.94001892,0.17998718,30.40005188,0.15800403
'2:00.750',0.56002167,-0.94001892,0.17998718,30.40005188,0.15800403
'2:00.875',0.56002167,-0.94001892,0.17998718,30.40005188,0.15800403
'2:01.000',0.56002167,-0.94001892,0.17998718,30.40005188,0.15800403
'2:01.125',0.55002197,-0.94001892,0.17998718,30.40005188,0.15800403
'2:01.250',0.56002167,-0.94001892,0.17998718,30.40005188,0.15800403
'2:01.375',0.56002167,-0.94001892,0.17998718,30.40005188,0.15800403
'2:01.500',0.55002197,-0.94001892,0.17998718,30.40005188,0.15800403
'2:01.625',0.56002167,-0.94001892,0.17998718,30.40005188,0.15800403
'2:01.750',0.56002167,-0.94001892,0.17998718,30.40005188,0.15800403
'2:01.875',0.56002167,-0.94001892,0.17998718,30.40005188,0.15800403
'2:02.000',0.55002197,-0.93003784,0.17998718,30.40005188,0.15800403
'2:02.125',0.56002167,-0.94001892,0.17998718,30.40005188,0.15600243
'2:02.250',0.55002197,-0.94001892,0.17998718,30.40005188,0.15800403
'2:02.375',0.55002197,-0.94001892,0.17998718,30.40005188,0.15800403
'2:02.500',0.56002167,-0.94001892,0.17998718,30.40005188,0.15800403
'2:02.625',0.56002167,-0.94001892,0.17998718,30.40005188,0.15800403
'2:02.750',0.55002197,-0.94001892,0.18999145,30.40005188,0.15800403
'2:02.875',0.56002167,-0.95000000,0.17998718,30.40005188,0.15800403
'2:03.000',0.56002167,-0.94001892,0.17998718,30.40005188,0.15600243
'2:03.125',0.56002167,-0.94001892,0.17998718,30.40005188,0.15800403
'2:03.250',0.56002167,-0.94001892,0.17998718,30.40005188,0.15800403
'2:03.375',0.56002167,-0.94001892,0.17998718,30.40005188,0.15800403
'2:03.500',0.56002167,-0.94001892,0.17998718,30.40005188,0.15600243
'2:03.625',0.56002167,-0.94001892,0.17998718,30.40005188,0.15600243
'2:03.750',0.56002167,-0.94001892,0.17998718,30.40005188,0.15600243
'2:03.875',0.56002167,-0.93003784,0.17998718,30.40005188,0.15400082
'2:04.000',0.56002167,-0.94001892,0.17998718,30.40005188,0.15600243
'2:04.125',0.56002167,-0.94001892,0.17998718,30.40005188,0.15600243
'2:04.250',0.56002167,-0.94001892,0.17998718,30.40005188,0.15400082
'2:04.375',0.56002167,-0.94001892,0.17998718,30.60000916,0.15400082
'2:04.500',0.56002167,-0.94001892,0.17998718,30.40005188,0.15400082
'2:04.625',0.56002167,-0.94001892,0.17998718,30.40005188,0.15400082
'2:04.750',0.56002167,-0.93003784,0.17998718,30.60000916,0.15400082
'2:04.875',0.56002167,-0.93003784,0.17998718,30.60000916,0.15400082
'2:05.000',0.56002167,-0.94001892,0.17998718,30.40005188,0.15400082
'2:05.125',0.56002167,-0.94001892,0.17998718,30.40005188,0.15400082
'2:05.250',0.56002167,-0.94001892,0.17998718,30.40005188,0.15400082
'2:05.375',0.56002167,-0.94001892,0.17998718,30.60000916,0.15400082
'2:05.500',0.56002167,-0.94001892,0.17998718,30.60000916,0.15400082
'2:05.625',0.56002167,-0.94001892,0.17998718,30.40005188,0.15400082
'2:05.750',0.56002167,-0.95000000,0.17998718,30.40005188,0.15400082
'2:05.875',0.55002197,-0.94001892,0.17998718,30.40005188,0.15400082
'2:06.000',0.56002167,-0.94001892,0.17998718,30.60000916,0.15400082
'2:06.125',0.55002197,-0.94001892,0.17998718,30.60000916,0.15400082
'2:06.250',0.56002167,-0.94001892,0.17998718,30.40005188,0.15302045
'2:06.375',0.55002197,-0.94001892,0.17998718,30.60000916,0.15400082
'2:06.500',0.55002197,-0.94001892,0.17998718,30.60000916,0.15400082
'2:06.625',0.56002167,-0.94001892,0.17998718,30.60000916,0.15400082
'2:06.750',0.56002167,-0.94001892,0.17998718,30.60000916,0.15400082
'2:06.875',0.56002167,-0.94001892,0.17998718,30.60000916,0.15400082
'2:07.000',0.56002167,-0.94001892,0.18999145,30.60000916,0.15400082
'2:07.125',0.56002167,-0.94001892,0.17998718,30.60000916,0.15400082
'2:07.250',0.56002167,-0.94001892,0.17998718,30.60000916,0.15400082
'2:07.375',0.55002197,-0.94001892,0.17998718,30.60000916,0.15400082
'2:07.500',0.56002167,-0.94001892,0.17998718,30.60000916,0.15400082
'2:07.625',0.56002167,-0.94001892,0.17998718,30.60000916,0.15400082
'2:07.750',0.55002197,-0.94001892,0.17998718,30.40005188,0.15400082
'2:07.875',0.56002167,-0.94001892,0.17998718,30.60000916,0.15400082
'2:08.000',0.56002167,-0.94001892,0.18999145,30.40005188,0.15400082
'2:08.125',0.56002167,-0.94001892,0.17998718,30.60000916,0.15400082
'2:08.250',0.56002167,-0.94001892,0.17998718,30.60000916,0.15400082
'2:08.375',0.56002167,-0.94001892,0.17998718,30.60000916,0.15400082
'2:08.500',0.56002167,-0.94001892,0.17998718,30.60000916,0.15101885
'2:08.625',0.55002197,-0.93003784,0.17998718,30.60000916,0.15101885
'2:08.750',0.56002167,-0.94001892,0.17998718,30.60000916,0.15400082
'2:08.875',0.56002167,-0.94001892,0.17998718,30.60000916,0.15101885
'2:09.000',0.56002167,-0.94001892,0.17998718,30.40005188,0.15101885
'2:09.125',0.56002167,-0.93003784,0.17998718,30.60000916,0.15101885
'2:09.250',0.56002167,-0.94001892,0.17998718,30.60000916,0.15101885
'2:09.375',0.56002167,-0.94001892,0.17998718,30.60000916,0.15101885
'2:09.500',0.55002197,-0.93003784,0.17998718,30.60000916,0.15101885
'2:09.625',0.56002167,-0.94001892,0.17998718,30.60000916,0.15101885
'2:09.750',0.56002167,-0.94001892,0.17998718,30.60000916,0.15101885
'2:09.875',0.56002167,-0.94001892,0.17998718,30.60000916,0.15101885
'2:10.000',0.56002167,-0.94001892,0.17998718,30.60000916,0.15101885
'2:10.125',0.56002167,-0.94001892,0.17998718,30.60000916,0.14901724
'2:10.250',0.56002167,-0.94001892,0.17998718,30.60000916,0.15101885
'2:10.375',0.56002167,-0.94001892,0.17998718,30.60000916,0.15101885
'2:10.500',0.55002197,-0.93003784,0.17998718,30.60000916,0.15101885
'2:10.625',0.55002197,-0.94001892,0.17998718,30.60000916,0.15101885
'2:10.750',0.56002167,-0.94001892,0.17998718,30.60000916,0.15101885
'2:10.875',0.56002167,-0.94001892,0.17998718,30.60000916,0.15101885
'2:11.000',0.56002167,-0.94001892,0.17998718,30.60000916,0.15101885
'2:11.125',0.55002197,-0.94001892,0.17998718,30.60000916,0.15101885
'2:11.250',0.56002167,-0.94001892,0.17998718,30.60000916,0.15101885
'2:11.375',0.55002197,-0.94001892,0.17998718,30.60000916,0.15101885
'2:11.500',0.56002167,-0.94001892,0.17998718,30.60000916,0.14901724
'2:11.625',0.56002167,-0.93003784,0.17998718,30.60000916,0.14901724
'2:11.750',0.55002197,-0.94001892,0.17998718,30.60000916,0.14901724
'2:11.875',0.56002167,-0.94001892,0.17998718,30.60000916,0.14901724
'2:12.000',0.55002197,-0.94001892,0.17998718,30.60000916,0.14901724
'2:12.125',0.56002167,-0.94001892,0.17998718,30.60000916,0.14901724
'2:12.250',0.55002197,-0.94001892,0.17998718,30.60000916,0.14901724
'2:12.375',0.56002167,-0.94001892,0.16998291,30.60000916,0.14901724
'2:12.500',0.56002167,-0.94001892,0.17998718,30.60000916,0.14901724
'2:12.625',0.56002167,-0.94001892,0.17998718,30.60000916,0.14901724
'2:12.750',0.55002197,-0.94001892,0.17998718,30.60000916,0.14901724
'2:12.875',0.55002197,-0.94001892,0.17998718,30.60000916,0.14901724
'2:13.000',0.56002167,-0.94001892,0.17998718,30.60000916,0.14901724
'2:13.125',0.55002197,-0.94001892,0.17998718,30.60000916,0.14901724
'2:13.250',0.55002197,-0.94001892,0.16998291,30.60000916,0.14901724
'2:13.375',0.55002197,-0.94001892,0.17998718,30.60000916,0.14901724
'2:13.500',0.56002167,-0.94001892,0.16998291,30.60000916,0.14901724
'2:13.625',0.55002197,-0.94001892,0.21000000,30.60000916,0.14901724
'2:13.750',0.55002197,-0.95000000,0.16998291,30.60000916,0.14901724
'2:13.875',0.56002167,-0.94001892,0.17998718,30.60000916,0.14901724
'2:14.000',0.56002167,-0.94001892,0.17998718,30.60000916,0.14901724
'2:14.125',0.55002197,-0.94001892,0.17998718,30.60000916,0.14901724
'2:14.250',0.55002197,-0.94001892,0.17998718,30.60000916,0.14901724
'2:14.375',0.56002167,-0.94001892,0.17998718,30.60000916,0.14901724
'2:14.500',0.56002167,-0.94001892,0.17998718,30.60000916,0.14901724
'2:14.625',0.55002197,-0.94001892,0.16998291,30.60000916,0.14901724
'2:14.750',0.55002197,-0.94001892,0.17998718,30.60000916,0.14901724
'2:14.875',0.55002197,-0.94001892,0.16998291,30.60000916,0.14901724
'2:15.000',0.55002197,-0.94001892,0.16998291,30.60000916,0.14901724
'2:15.125',0.55002197,-0.94001892,0.16998291,30.60000916,0.14901724
'2:15.250',0.54002228,-0.94001892,0.17998718,30.60000916,0.14901724
'2:15.375',0.56002167,-0.94001892,0.17998718,30.60000916,0.14901724
'2:15.500',0.55002197,-0.94001892,0.17998718,30.60000916,0.14901724
'2:15.625',0.55002197,-0.94001892,0.17998718,30.60000916,0.14901724
'2:15.750',0.55002197,-0.94001892,0.17998718,30.60000916,0.14901724
'2:15.875',0.55002197,-0.94001892,0.17998718,30.60000916,0.14901724
'2:16.000',0.55002197,-0.94001892,0.17998718,30.60000916,0.14901724
'2:16.125',0.55002197,-0.94001892,0.17998718,30.60000916,0.14901724
'2:16.250',0.55002197,-0.94001892,0.17998718,30.60000916,0.14901724
'2:16.375',0.55002197,-0.95000000,0.17998718,30.60000916,0.14901724
'2:16.500',0.56002167,-0.94001892,0.17998718,30.60000916,0.14901724
'2:16.625',0.55002197,-0.94001892,0.17998718,30.60000916,0.14901724
'2:16.750',0.55002197,-0.95000000,0.17998718,30.60000916,0.14901724
'2:16.875',0.55002197,-0.94001892,0.17998718,30.60000916,0.14901724
'2:17.000',0.55002197,-0.95000000,0.17998718,30.60000916,0.14901724
'2:17.125',0.55002197,-0.94001892,0.17998718,30.79996643,0.14901724
'2:17.250',0.56002167,-0.94001892,0.17998718,30.60000916,0.14901724
'2:17.375',0.55002197,-0.94001892,0.17998718,30.60000916,0.14901724
'2:17.500',0.56002167,-0.95000000,0.17998718,30.60000916,0.14901724
'2:17.625',0.55002197,-0.94001892,0.17998718,30.60000916,0.14901724
'2:17.750',0.55002197,-0.94001892,0.16998291,30.60000916,0.14901724
'2:17.875',0.55002197,-0.94001892,0.17998718,30.60000916,0.14901724
'2:18.000',0.55002197,-0.94001892,0.17998718,30.60000916,0.14901724
'2:18.125',0.55002197,-0.94001892,0.17998718,30.60000916,0.14901724
'2:18.250',0.56002167,-0.94001892,0.17998718,30.60000916,0.14901724
'2:18.375',0.55002197,-0.94001892,0.17998718,30.60000916,0.14901724
'2:18.500',0.54002228,-0.94001892,0.17998718,30.60000916,0.14901724
'2:18.625',0.55002197,-0.94001892,0.17998718,30.60000916,0.14901724
'2:18.750',0.55002197,-0.94001892,0.17998718,30.60000916,0.14901724
'2:18.875',0.56002167,-0.94001892,0.17998718,30.60000916,0.14901724
'2:19.000',0.54002228,-0.95000000,0.17998718,30.60000916,0.14901724
'2:19.125',0.55002197,-0.94001892,0.17998718,30.60000916,0.14901724
'2:19.250',0.55002197,-0.94001892,0.17998718,30.60000916,0.14603526
'2:19.375',0.54002228,-0.94001892,0.17998718,30.60000916,0.14901724
'2:19.500',0.55002197,-0.94001892,0.17998718,30.60000916,0.14603526
'2:19.625',0.55002197,-0.94001892,0.17998718,30.60000916,0.14603526
'2:19.750',0.55002197,-0.94001892,0.17998718,30.60000916,0.14603526
'2:19.875',0.55002197,-0.94001892,0.17998718,30.60000916,0.14901724
'2:20.000',0.56002167,-0.94001892,0.17998718,30.60000916,0.14603526
'2:20.125',0.55002197,-0.94001892,0.17998718,30.60000916,0.14603526
'2:20.250',0.55002197,-0.94001892,0.17998718,30.60000916,0.14603526
'2:20.375',0.55002197,-0.94001892,0.17998718,30.60000916,0.14603526
'2:20.500',0.55002197,-0.94001892,0.17998718,30.60000916,0.14603526
'2:20.625',0.55002197,-0.94001892,0.17998718,30.60000916,0.14901724
'2:20.750',0.55002197,-0.94001892,0.17998718,30.60000916,0.14901724
'2:20.875',0.55002197,-0.95000000,0.17998718,30.60000916,0.14603526
'2:21.000',0.55002197,-0.94001892,0.17998718,30.79996643,0.14901724
'2:21.125',0.56002167,-0.94001892,0.17998718,30.60000916,0.14901724
'2:21.250',0.55002197,-0.94001892,0.17998718,30.60000916,0.14901724
'2:21.375',0.55002197,-0.94001892,0.17998718,30.60000916,0.14603526
'2:21.500',0.55002197,-0.94001892,0.17998718,30.79996643,0.14901724
'2:21.625',0.55002197,-0.94001892,0.17998718,30.60000916,0.14901724
'2:21.750',0.55002197,-0.94001892,0.17998718,30.79996643,0.14603526
'2:21.875',0.56002167,-0.94001892,0.17998718,30.60000916,0.14603526
'2:22.000',0.55002197,-0.94001892,0.17998718,30.79996643,0.14603526
'2:22.125',0.55002197,-0.94001892,0.17998718,30.60000916,0.14403366
'2:22.250',0.55002197,-0.94001892,0.17998718,30.60000916,0.14901724
'2:22.375',0.55002197,-0.94001892,0.17998718,30.79996643,0.14901724
'2:22.500',0.55002197,-0.94001892,0.17998718,30.60000916,0.14403366
'2:22.625',0.56002167,-0.94001892,0.17998718,30.60000916,0.14403366
'2:22.750',0.55002197,-0.94001892,0.17998718,30.79996643,0.14603526
'2:22.875',0.55002197,-0.94001892,0.17998718,30.60000916,0.14603526
'2:23.000',0.55002197,-0.94001892,0.17998718,30.60000916,0.14603526
'2:23.125',0.55002197,-0.94001892,0.17998718,30.79996643,0.14403366
'2:23.250',0.55002197,-0.94001892,0.17998718,30.79996643,0.14403366
'2:23.375',0.55002197,-0.94001892,0.17998718,30.79996643,0.14603526
'2:23.500',0.55002197,-0.94001892,0.17998718,30.60000916,0.14603526
'2:23.625',0.55002197,-0.95000000,0.17998718,30.79996643,0.14603526
'2:23.750',0.55002197,-0.94001892,0.16998291,30.79996643,0.14403366
'2:23.875',0.55002197,-0.94001892,0.17998718,30.79996643,0.14403366
'2:24.000',0.56002167,-0.94001892,0.17998718,30.79996643,0.14403366
'2:24.125',0.55002197,-0.94001892,0.17998718,30.79996643,0.14403366
'2:24.250',0.55002197,-0.94001892,0.17998718,30.60000916,0.14603526
'2:24.375',0.55002197,-0.94001892,0.17998718,30.60000916,0.14403366
'2:24.500',0.55002197,-0.94001892,0.17998718,30.60000916,0.14701564
'2:24.625',0.55002197,-0.93003784,0.17998718,30.79996643,0.14403366
'2:24.750',0.56002167,-0.94001892,0.16998291,30.79996643,0.14403366
'2:24.875',0.55002197,-0.94001892,0.16998291,30.79996643,0.14403366
'2:25.000',0.55002197,-0.94001892,0.17998718,30.79996643,0.14403366
'2:25.125',0.56002167,-0.94001892,0.16998291,30.79996643,0.14403366
'2:25.250',0.55002197,-0.94001892,0.16998291,30.79996643,0.14403366
'2:25.375',0.55002197,-0.94001892,0.17998718,30.79996643,0.14403366
'2:25.500',0.55002197,-0.94001892,0.17998718,30.79996643,0.14403366
'2:25.625',0.56002167,-0.94001892,0.17998718,30.79996643,0.14403366
'2:25.750',0.55002197,-0.94001892,0.17998718,30.79996643,0.14403366
'2:25.875',0.55002197,-0.94001892,0.17998718,30.79996643,0.14403366
'2:26.000',0.56002167,-0.94001892,0.17998718,30.79996643,0.14403366
'2:26.125',0.55002197,-0.94001892,0.17998718,30.79996643,0.14403366
'2:26.250',0.55002197,-0.94001892,0.17998718,30.79996643,0.14403366
'2:26.375',0.55002197,-0.95000000,0.17998718,30.60000916,0.14403366
'2:26.500',0.55002197,-0.94001892,0.17998718,30.79996643,0.14403366
'2:26.625',0.56002167,-0.94001892,0.17998718,30.79996643,0.14403366
'2:26.750',0.55002197,-0.94001892,0.17998718,30.79996643,0.14403366
'2:26.875',0.55002197,-0.94001892,0.17998718,30.79996643,0.14403366
'2:27.000',0.55002197,-0.94001892,0.17998718,30.79996643,0.14403366
'2:27.125',0.56002167,-0.94001892,0.17998718,30.79996643,0.14403366
'2:27.250',0.55002197,-0.94001892,0.17998718,30.79996643,0.14403366
'2:27.375',0.55002197,-0.93003784,0.17998718,30.79996643,0.14403366
'2:27.500',0.55002197,-0.94001892,0.17998718,30.79996643,0.14403366
'2:27.625',0.55002197,-0.94001892,0.17998718,30.79996643,0.14403366
'2:27.750',0.55002197,-0.94001892,0.17998718,30.79996643,0.14403366
'2:27.875',0.55002197,-0.93003784,0.17998718,30.79996643,0.14403366
'2:28.000',0.56002167,-0.94001892,0.17998718,30.79996643,0.14403366
'2:28.125',0.55002197,-0.94001892,0.17998718,30.79996643,0.14403366
'2:28.250',0.55002197,-0.94001892,0.17998718,30.79996643,0.14403366
'2:28.375',0.55002197,-0.93003784,0.17998718,30.79996643,0.14403366
'2:28.500',0.55002197,-0.94001892,0.17998718,30.79996643,0.14403366
'2:28.625',0.55002197,-0.94001892,0.17998718,30.79996643,0.14403366
'2:28.750',0.55002197,-0.94001892,0.17998718,30.79996643,0.14403366
'2:28.875',0.55002197,-0.94001892,0.17998718,30.79996643,0.14403366
'2:29.000',0.55002197,-0.94001892,0.17998718,30.79996643,0.14403366
'2:29.125',0.55002197,-0.94001892,0.17998718,30.79996643,0.14403366
'2:29.250',0.55002197,-0.94001892,0.17998718,30.79996643,0.14403366
'2:29.375',0.55002197,-0.94001892,0.17998718,30.79996643,0.14403366
'2:29.500',0.55002197,-0.94001892,0.17998718,30.79996643,0.14403366
'2:29.625',0.55002197,-0.95000000,0.17998718,30.79996643,0.14403366
'2:29.750',0.56002167,-0.94001892,0.17998718,30.79996643,0.14403366
'2:29.875',0.55002197,-0.94001892,0.17998718,30.79996643,0.14403366
'2:30.000',0.55002197,-0.94001892,0.17998718,30.79996643,0.14403366
'2:30.125',0.56002167,-0.94001892,0.17998718,30.79996643,0.14403366
'2:30.250',0.55002197,-0.94001892,0.17998718,30.79996643,0.14403366
'2:30.375',0.55002197,-0.94001892,0.17998718,30.79996643,0.14403366
'2:30.500',0.55002197,-0.94001892,0.17998718,30.79996643,0.14403366
'2:30.625',0.55002197,-0.94001892,0.17998718,30.79996643,0.14403366
'2:30.750',0.55002197,-0.94001892,0.17998718,30.79996643,0.14403366
'2:30.875',0.55002197,-0.94001892,0.17998718,30.79996643,0.14403366
'2:31.000',0.55002197,-0.94001892,0.17998718,30.79996643,0.14203206
'2:31.125',0.55002197,-0.95000000,0.17998718,30.79996643,0.14403366
'2:31.250',0.55002197,-0.94001892,0.17998718,30.79996643,0.14403366
'2:31.375',0.55002197,-0.94001892,0.17998718,30.79996643,0.14403366
'2:31.500',0.55002197,-0.94001892,0.17998718,30.79996643,0.14203206
'2:31.625',0.55002197,-0.94001892,0.17998718,30.79996643,0.14403366
'2:31.750',0.55002197,-0.94001892,0.17998718,30.79996643,0.14403366
'2:31.875',0.55002197,-0.94001892,0.17998718,30.79996643,0.14203206
'2:32.000',0.55002197,-0.94001892,0.17998718,30.79996643,0.14403366
'2:32.125',0.55002197,-0.95000000,0.17998718,30.79996643,0.14403366
'2:32.250',0.55002197,-0.94001892,0.16998291,30.79996643,0.14403366
'2:32.375',0.55002197,-0.94001892,0.17998718,30.79996643,0.14203206
'2:32.500',0.56002167,-0.94001892,0.17998718,30.79996643,0.14003046
'2:32.625',0.55002197,-0.94001892,0.17998718,30.79996643,0.14403366
'2:32.750',0.55002197,-0.94001892,0.17998718,30.79996643,0.14403366
'2:32.875',0.55002197,-0.94001892,0.17998718,30.79996643,0.14003046
'2:33.000',0.55002197,-0.94001892,0.17998718,30.79996643,0.14203206
'2:33.125',0.55002197,-0.94001892,0.17998718,30.79996643,0.14203206
'2:33.250',0.56002167,-0.94001892,0.17998718,30.79996643,0.14003046
'2:33.375',0.55002197,-0.94001892,0.17998718,30.79996643,0.14403366
'2:33.500',0.56002167,-0.94001892,0.17998718,30.79996643,0.14003046
'2:33.625',0.55002197,-0.94001892,0.17998718,30.79996643,0.14003046
'2:33.750',0.56002167,-0.94001892,0.17998718,30.79996643,0.14203206
'2:33.875',0.55002197,-0.94001892,0.17998718,30.79996643,0.13900923
'2:34.000',0.55002197,-0.94001892,0.16998291,30.79996643,0.14003046
'2:34.125',0.55002197,-0.95000000,0.17998718,30.79996643,0.14203206
'2:34.250',0.55002197,-0.94001892,0.17998718,30.79996643,0.14003046
'2:34.375',0.56002167,-0.94001892,0.17998718,30.79996643,0.14003046
'2:34.500',0.55002197,-0.94001892,0.17998718,30.79996643,0.14003046
'2:34.625',0.55002197,-0.94001892,0.17998718,30.79996643,0.14003046
'2:34.750',0.55002197,-0.94001892,0.17998718,30.79996643,0.14003046
'2:34.875',0.55002197,-0.94001892,0.17998718,30.79996643,0.14003046
'2:35.000',0.55002197,-0.94001892,0.17998718,30.79996643,0.14003046
'2:35.125',0.55002197,-0.95000000,0.17998718,30.79996643,0.14003046
'2:35.250',0.55002197,-0.95000000,0.17998718,30.79996643,0.14003046
'2:35.375',0.55002197,-0.94001892,0.17998718,30.79996643,0.14003046
'2:35.500',0.55002197,-0.94001892,0.17998718,30.79996643,0.14203206
'2:35.625',0.55002197,-0.94001892,0.17998718,30.79996643,0.14003046
'2:35.750',0.55002197,-0.94001892,0.17998718,30.79996643,0.14003046
'2:35.875',0.55002197,-0.94001892,0.17998718,30.79996643,0.14003046
'2:36.000',0.55002197,-0.94001892,0.17998718,30.79996643,0.14003046
'2:36.125',0.55002197,-0.94001892,0.17998718,30.79996643,0.14003046
'2:36.250',0.54002228,-0.94001892,0.17998718,30.79996643,0.14003046
'2:36.375',0.54002228,-0.94001892,0.17998718,30.79996643,0.14003046
'2:36.500',0.55002197,-0.95000000,0.17998718,30.79996643,0.14003046
'2:36.625',0.55002197,-0.94001892,0.17998718,30.79996643,0.14003046
'2:36.750',0.55002197,-0.94001892,0.17998718,30.79996643,0.14003046
'2:36.875',0.56002167,-0.94001892,0.17998718,30.79996643,0.14003046
'2:37.000',0.55002197,-0.94001892,0.17998718,30.79996643,0.14003046
'2:37.125',0.55002197,-0.94001892,0.17998718,30.79996643,0.14003046
'2:37.250',0.55002197,-0.94001892,0.17998718,30.79996643,0.14003046
'2:37.375',0.55002197,-0.95000000,0.17998718,30.79996643,0.14003046
'2:37.500',0.55002197,-0.94001892,0.17998718,30.79996643,0.14003046
'2:37.625',0.55002197,-0.95000000,0.17998718,30.79996643,0.14003046
'2:37.750',0.55002197,-0.94001892,0.17998718,30.79996643,0.14003046
'2:37.875',0.55002197,-0.94001892,0.17998718,30.79996643,0.14003046
'2:38.000',0.55002197,-0.94001892,0.17998718,30.79996643,0.14003046
'2:38.125',0.55002197,-0.94001892,0.17998718,30.79996643,0.14003046
'2:38.250',0.55002197,-0.94001892,0.17998718,30.99998321,0.14003046
'2:38.375',0.54002228,-0.94001892,0.17998718,30.79996643,0.14003046
'2:38.500',0.55002197,-0.94001892,0.17998718,30.79996643,0.14003046
'2:38.625',0.55002197,-0.94001892,0.17998718,30.79996643,0.14003046
'2:38.750',0.55002197,-0.94001892,0.17998718,30.79996643,0.14003046
'2:38.875',0.54002228,-0.94001892,0.17998718,30.99998321,0.14003046
'2:39.000',0.55002197,-0.94001892,0.17998718,30.79996643,0.14003046
'2:39.125',0.54002228,-0.94001892,0.17998718,30.79996643,0.14003046
'2:39.250',0.55002197,-0.94001892,0.17998718,30.79996643,0.14003046
'2:39.375',0.55002197,-0.94001892,0.17998718,30.79996643,0.14003046
'2:39.500',0.55002197,-0.94001892,0.17998718,30.79996643,0.14003046
'2:39.625',0.55002197,-0.94001892,0.17998718,30.79996643,0.14003046
'2:39.750',0.55002197,-0.94001892,0.17998718,30.79996643,0.13900923
'2:39.875',0.55002197,-0.94001892,0.17998718,30.79996643,0.14003046
'2:40.000',0.56002167,-0.94001892,0.17998718,30.79996643,0.14003046
'2:40.125',0.55002197,-0.94001892,0.17998718,30.79996643,0.14003046
'2:40.250',0.54002228,-0.94001892,0.17998718,30.79996643,0.14003046
'2:40.375',0.55002197,-0.94001892,0.17998718,30.79996643,0.14003046
'2:40.500',0.55002197,-0.94001892,0.17998718,30.99998321,0.14003046
'2:40.625',0.56002167,-0.94001892,0.17998718,30.79996643,0.14003046
'2:40.750',0.55002197,-0.94001892,0.17998718,30.99998321,0.14003046
'2:40.875',0.55002197,-0.94001892,0.17998718,30.79996643,0.14003046
'2:41.000',0.55002197,-0.95000000,0.17998718,30.79996643,0.14003046
'2:41.125',0.55002197,-0.94001892,0.17998718,30.79996643,0.14003046
'2:41.250',0.55002197,-0.94001892,0.17998718,30.99998321,0.14003046
'2:41.375',0.54002228,-0.94001892,0.17998718,30.79996643,0.13700763
'2:41.500',0.55002197,-0.94001892,0.17998718,30.79996643,0.14003046
'2:41.625',0.55002197,-0.94001892,0.17998718,30.99998321,0.14003046
'2:41.750',0.55002197,-0.94001892,0.17998718,30.79996643,0.14003046
'2:41.875',0.55002197,-0.95000000,0.17998718,30.79996643,0.14003046
'2:42.000',0.54002228,-0.94001892,0.17998718,30.79996643,0.14003046
'2:42.125',0.55002197,-0.94001892,0.17998718,30.79996643,0.14003046
'2:42.250',0.55002197,-0.94001892,0.17998718,30.79996643,0.13700763
'2:42.375',0.55002197,-0.94001892,0.17998718,30.79996643,0.14003046
'2:42.500',0.54002228,-0.95000000,0.17998718,30.99998321,0.14003046
'2:42.625',0.55002197,-0.94001892,0.17998718,30.99998321,0.14003046
'2:42.750',0.54002228,-0.95000000,0.17998718,30.99998321,0.14003046
'2:42.875',0.54002228,-0.95000000,0.17998718,30.79996643,0.13700763
'2:43.000',0.55002197,-0.94001892,0.17998718,30.79996643,0.14003046
'2:43.125',0.55002197,-0.94001892,0.17998718,30.79996643,0.13700763
'2:43.250',0.55002197,-0.94001892,0.17998718,30.99998321,0.14003046
'2:43.375',0.55002197,-0.94001892,0.17998718,30.99998321,0.13700763
'2:43.500',0.54002228,-0.95000000,0.17998718,30.79996643,0.14003046
'2:43.625',0.54002228,-0.94001892,0.17998718,30.79996643,0.13700763
'2:43.750',0.55002197,-0.94001892,0.17998718,30.99998321,0.14003046
'2:43.875',0.55002197,-0.94001892,0.17998718,30.99998321,0.13700763
'2:44.000',0.55002197,-0.94001892,0.16998291,30.99998321,0.13700763
'2:44.125',0.54002228,-0.94001892,0.17998718,30.79996643,0.13700763
'2:44.250',0.54002228,-0.94001892,0.17998718,30.99998321,0.13700763
'2:44.375',0.54002228,-0.94001892,0.17998718,30.79996643,0.13700763
'2:44.500',0.54002228,-0.95000000,0.17998718,30.99998321,0.13700763
'2:44.625',0.54002228,-0.95000000,0.17998718,30.99998321,0.13700763
'2:44.750',0.54002228,-0.94001892,0.16998291,30.99998321,0.14003046
'2:44.875',0.54002228,-0.94001892,0.17998718,30.99998321,0.13500603
'2:45.000',0.55002197,-0.94001892,0.17998718,30.99998321,0.14003046
'2:45.125',0.54002228,-0.94001892,0.17998718,30.99998321,0.13700763
'2:45.250',0.54002228,-0.94001892,0.17998718,30.99998321,0.13700763
'2:45.375',0.54002228,-0.95000000,0.17998718,30.79996643,0.13500603
'2:45.500',0.54002228,-0.95000000,0.17998718,30.99998321,0.13700763
'2:45.625',0.55002197,-0.95000000,0.17998718,30.99998321,0.13500603
'2:45.750',0.55002197,-0.94001892,0.17998718,30.99998321,0.13500603
'2:45.875',0.55002197,-0.95000000,0.17998718,30.99998321,0.13500603
'2:46.000',0.55002197,-0.94001892,0.17998718,30.99998321,0.13500603
'2:46.125',0.55002197,-0.95000000,0.17998718,30.99998321,0.13500603
'2:46.250',0.54002228,-0.94001892,0.17998718,30.99998321,0.13700763
'2:46.375',0.54002228,-0.94001892,0.17998718,30.99998321,0.13700763
'2:46.500',0.54002228,-0.94001892,0.17998718,30.99998321,0.13500603
'2:46.625',0.55002197,-0.95000000,0.17998718,30.99998321,0.13500603
'2:46.750',0.54002228,-0.95000000,0.17998718,30.99998321,0.13700763
'2:46.875',0.55002197,-0.95000000,0.17998718,30.99998321,0.13700763
'2:47.000',0.54002228,-0.94001892,0.17998718,30.99998321,0.13700763
'2:47.125',0.54002228,-0.94001892,0.17998718,30.99998321,0.13700763
'2:47.250',0.55002197,-0.95000000,0.17998718,30.99998321,0.13700763
'2:47.375',0.54002228,-0.94001892,0.17998718,30.99998321,0.13500603
'2:47.500',0.55002197,-0.95000000,0.17998718,30.99998321,0.13500603
'2:47.625',0.54002228,-0.95000000,0.17998718,30.99998321,0.13500603
'2:47.750',0.54002228,-0.94001892,0.17998718,30.99998321,0.13500603
'2:47.875',0.54002228,-0.94001892,0.18999145,30.99998321,0.13500603
'2:48.000',0.54002228,-0.94001892,0.17998718,30.99998321,0.13500603
'2:48.125',0.54002228,-0.94001892,0.17998718,30.99998321,0.13500603
'2:48.250',0.54002228,-0.95000000,0.17998718,30.99998321,0.13500603
'2:48.375',0.54002228,-0.95000000,0.17998718,30.99998321,0.13500603
'2:48.500',0.55002197,-0.94001892,0.17998718,30.99998321,0.13500603
'2:48.625',0.54002228,-0.93003784,0.17998718,30.99998321,0.13500603
'2:48.750',0.55002197,-0.94001892,0.17998718,30.99998321,0.13500603
'2:48.875',0.54002228,-0.95000000,0.17998718,30.99998321,0.13500603
'2:49.000',0.54002228,-0.95000000,0.17998718,30.99998321,0.13500603
'2:49.125',0.55002197,-0.94001892,0.17998718,30.99998321,0.13500603
'2:49.250',0.55002197,-0.94001892,0.17998718,30.99998321,0.13500603
'2:49.375',0.54002228,-0.94001892,0.17998718,30.99998321,0.13500603
'2:49.500',0.55002197,-0.94001892,0.17998718,30.99998321,0.13500603
'2:49.625',0.54002228,-0.94001892,0.17998718,30.99998321,0.13500603
'2:49.750',0.55002197,-0.94001892,0.17998718,30.99998321,0.13500603
'2:49.875',0.55002197,-0.94001892,0.17998718,30.99998321,0.13500603
'2:50.000',0.54002228,-0.94001892,0.17998718,30.99998321,0.13500603
'2:50.125',0.54002228,-0.94001892,0.17998718,30.99998321,0.13500603
'2:50.250',0.54002228,-0.94001892,0.17998718,30.99998321,0.13500603
'2:50.375',0.54002228,-0.94001892,0.17998718,30.99998321,0.13500603
'2:50.500',0.55002197,-0.94001892,0.17998718,30.99998321,0.13500603
'2:50.625',0.55002197,-0.95000000,0.17998718,30.99998321,0.13500603
'2:50.750',0.55002197,-0.94001892,0.17998718,30.99998321,0.13500603
'2:50.875',0.55002197,-0.94001892,0.17998718,30.99998321,0.13500603
'2:51.000',0.55002197,-0.94001892,0.17998718,30.99998321,0.13500603
'2:51.125',0.54002228,-0.94001892,0.17998718,30.99998321,0.13500603
'2:51.250',0.54002228,-0.95000000,0.17998718,30.99998321,0.13500603
'2:51.375',0.55002197,-0.95000000,0.17998718,30.99998321,0.13500603
'2:51.500',0.55002197,-0.94001892,0.17998718,30.99998321,0.13500603
'2:51.625',0.54002228,-0.94001892,0.17998718,30.99998321,0.13500603
'2:51.750',0.55002197,-0.94001892,0.17998718,30.99998321,0.13500603
'2:51.875',0.55002197,-0.94001892,0.17998718,30.99998321,0.13500603
'2:52.000',0.55002197,-0.94001892,0.17998718,30.99998321,0.13500603
'2:52.125',0.54002228,-0.94001892,0.17998718,30.99998321,0.13500603
'2:52.250',0.55002197,-0.95000000,0.17998718,30.99998321,0.13500603
'2:52.375',0.54002228,-0.94001892,0.17998718,30.99998321,0.13500603
'2:52.500',0.54002228,-0.94001892,0.17998718,30.99998321,0.13500603
'2:52.625',0.55002197,-0.94001892,0.17998718,30.99998321,0.13500603
'2:52.750',0.54002228,-0.95000000,0.17998718,30.99998321,0.13500603
'2:52.875',0.55002197,-0.94001892,0.17998718,30.99998321,0.13500603
'2:53.000',0.54002228,-0.94001892,0.17998718,30.99998321,0.13500603
'2:53.125',0.55002197,-0.94001892,0.17998718,30.99998321,0.13500603
'2:53.250',0.54002228,-0.94001892,0.17998718,30.99998321,0.13500603
'2:53.375',0.55002197,-0.94001892,0.17998718,30.99998321,0.13500603
'2:53.500',0.54002228,-0.94001892,0.17998718,30.99998321,0.13500603
'2:53.625',0.54002228,-0.94001892,0.17998718,30.99998321,0.13500603
'2:53.750',0.54002228,-0.94001892,0.17998718,30.99998321,0.13500603
'2:53.875',0.55002197,-0.94001892,0.17998718,30.99998321,0.13500603
'2:54.000',0.54002228,-0.94001892,0.17998718,30.99998321,0.13500603
'2:54.125',0.55002197,-0.94001892,0.17998718,30.99998321,0.13500603
'2:54.250',0.55002197,-0.94001892,0.17998718,30.99998321,0.13500603
'2:54.375',0.54002228,-0.94001892,0.17998718,30.99998321,0.13500603
'2:54.500',0.54002228,-0.94001892,0.17998718,30.99998321,0.13500603
'2:54.625',0.55002197,-0.94001892,0.17998718,30.99998321,0.13500603
'2:54.750',0.54002228,-0.94001892,0.17998718,30.99998321,0.13500603
'2:54.875',0.54002228,-0.94001892,0.17998718,30.99998321,0.13500603
'2:55.000',0.54002228,-0.94001892,0.17998718,30.99998321,0.13500603
'2:55.125',0.55002197,-0.95000000,0.16998291,30.99998321,0.13500603
'2:55.250',0.55002197,-0.95000000,0.17998718,30.99998321,0.13500603
'2:55.375',0.55002197,-0.94001892,0.17998718,30.99998321,0.13500603
'2:55.500',0.54002228,-0.94001892,0.17998718,30.99998321,0.13500603
'2:55.625',0.54002228,-0.94001892,0.17998718,30.99998321,0.13500603
'2:55.750',0.54002228,-0.94001892,0.17998718,30.99998321,0.13500603
'2:55.875',0.54002228,-0.94001892,0.17998718,30.99998321,0.13500603
'2:56.000',0.54002228,-0.95000000,0.17998718,30.99998321,0.13500603
'2:56.125',0.54002228,-0.95000000,0.17998718,30.99998321,0.13500603
'2:56.250',0.54002228,-0.95000000,0.17998718,30.99998321,0.13500603
'2:56.375',0.55002197,-0.95000000,0.17998718,30.99998321,0.13500603
'2:56.500',0.55002197,-0.94001892,0.17998718,30.99998321,0.13500603
'2:56.625',0.54002228,-0.95000000,0.17998718,30.99998321,0.13500603
'2:56.750',0.54002228,-0.95000000,0.17998718,30.99998321,0.13500603
'2:56.875',0.54002228,-0.95000000,0.17998718,30.99998321,0.13500603
'2:57.000',0.54002228,-0.94001892,0.17998718,30.99998321,0.13500603
'2:57.125',0.55002197,-0.94001892,0.17998718,30.99998321,0.13500603
'2:57.250',0.55002197,-0.95000000,0.16998291,30.99998321,0.13500603
'2:57.375',0.55002197,-0.94001892,0.17998718,30.99998321,0.13500603
'2:57.500',0.55002197,-0.94001892,0.17998718,30.99998321,0.13500603
'2:57.625',0.54002228,-0.94001892,0.17998718,30.99998321,0.13500603
'2:57.750',0.54002228,-0.95000000,0.17998718,30.99998321,0.13500603
'2:57.875',0.55002197,-0.95000000,0.17998718,30.99998321,0.13500603
'2:58.000',0.55002197,-0.94001892,0.17998718,30.99998321,0.13500603
'2:58.125',0.54002228,-0.94001892,0.17998718,30.99998321,0.13500603
'2:58.250',0.55002197,-0.95000000,0.17998718,30.99998321,0.13500603
'2:58.375',0.54002228,-0.95000000,0.17998718,30.99998321,0.13500603
'2:58.500',0.54002228,-0.95000000,0.16998291,30.99998321,0.13500603
'2:58.625',0.54002228,-0.94001892,0.17998718,30.99998321,0.13500603
'2:58.750',0.54002228,-0.94001892,0.17998718,30.99998321,0.13500603
'2:58.875',0.55002197,-0.94001892,0.17998718,30.99998321,0.13500603
'2:59.000',0.54002228,-0.94001892,0.17998718,30.99998321,0.13500603
'2:59.125',0.55002197,-0.94001892,0.17998718,30.99998321,0.13500603
'2:59.250',0.54002228,-0.94001892,0.17998718,30.99998321,0.13500603
'2:59.375',0.55002197,-0.95000000,0.17998718,30.99998321,0.13500603
'2:59.500',0.54002228,-0.95000000,0.17998718,30.99998321,0.13500603
'2:59.625',0.54002228,-0.95000000,0.16998291,31.19994049,0.13500603
'2:59.750',0.53002258,-0.95000000,0.17998718,30.99998321,0.13500603
'2:59.875',0.54002228,-0.94001892,0.17998718,31.19994049,0.13500603
'3:00.000',0.54002228,-0.94001892,0.17998718,30.99998321,0.13500603
'3:00.125',0.54002228,-0.94001892,0.17998718,30.99998321,0.13500603
'3:00.250',0.54002228,-0.94001892,0.17998718,30.99998321,0.13500603
'3:00.375',0.54002228,-0.95000000,0.17998718,30.99998321,0.13500603
'3:00.500',0.54002228,-0.95000000,0.17998718,30.99998321,0.13500603
'3:00.625',0.54002228,-0.94001892,0.17998718,31.19994049,0.13500603
'3:00.750',0.54002228,-0.94001892,0.17998718,30.99998321,0.13500603
'3:00.875',0.54002228,-0.94001892,0.17998718,30.99998321,0.13500603
'3:01.000',0.54002228,-0.95000000,0.17998718,30.99998321,0.13500603
'3:01.125',0.54002228,-0.94001892,0.17998718,30.99998321,0.13500603
'3:01.250',0.54002228,-0.94001892,0.17998718,30.99998321,0.13202405
'3:01.375',0.55002197,-0.95000000,0.17998718,30.99998321,0.13500603
'3:01.500',0.54002228,-0.95000000,0.17998718,30.99998321,0.13500603
'3:01.625',0.55002197,-0.94001892,0.17998718,30.99998321,0.13500603
'3:01.750',0.54002228,-0.95000000,0.17998718,31.19994049,0.13202405
'3:01.875',0.54002228,-0.95000000,0.17998718,30.99998321,0.13500603
'3:02.000',0.54002228,-0.95000000,0.17998718,30.99998321,0.13202405
'3:02.125',0.54002228,-0.94001892,0.17998718,31.19994049,0.13202405
'3:02.250',0.54002228,-0.94001892,0.17998718,30.99998321,0.13202405
'3:02.375',0.54002228,-0.94001892,0.17998718,31.19994049,0.13500603
'3:02.500',0.54002228,-0.95000000,0.17998718,31.19994049,0.13500603
'3:02.625',0.54002228,-0.94001892,0.17998718,30.99998321,0.13500603
'3:02.750',0.54002228,-0.94001892,0.17998718,30.99998321,0.13500603
'3:02.875',0.54002228,-0.94001892,0.17998718,30.99998321,0.13500603
'3:03.000',0.54002228,-0.94001892,0.17998718,30.99998321,0.13500603
'3:03.125',0.54002228,-0.95000000,0.17998718,30.99998321,0.13500603
'3:03.250',0.54002228,-0.94001892,0.17998718,31.19994049,0.13500603
'3:03.375',0.54002228,-0.95000000,0.17998718,30.99998321,0.13202405
'3:03.500',0.54002228,-0.94001892,0.17998718,30.99998321,0.13202405
'3:03.625',0.54002228,-0.94001892,0.17998718,31.39995727,0.13500603
'3:03.750',0.54002228,-0.95000000,0.16998291,31.39995727,0.13500603
'3:03.875',0.54002228,-0.95000000,0.16998291,31.39995727,0.13500603
'3:04.000',0.54002228,-0.95000000,0.17998718,31.19994049,0.13500603
'3:04.125',0.54002228,-0.95000000,0.16998291,31.19994049,0.13500603
'3:04.250',0.54002228,-0.95000000,0.16998291,31.19994049,0.13500603
'3:04.375',0.54002228,-0.94001892,0.17998718,31.19994049,0.13202405
'3:04.500',0.55002197,-0.94001892,0.17998718,31.19994049,0.13202405
'3:04.625',0.54002228,-0.95000000,0.17998718,31.19994049,0.13202405
'3:04.750',0.54002228,-0.94001892,0.17998718,30.99998321,0.13202405
'3:04.875',0.54002228,-0.94001892,0.17998718,31.19994049,0.13202405
'3:05.000',0.55002197,-0.95000000,0.17998718,30.99998321,0.13202405
'3:05.125',0.54002228,-0.95000000,0.17998718,31.19994049,0.13202405
'3:05.250',0.54002228,-0.94001892,0.17998718,31.19994049,0.13202405
'3:05.375',0.54002228,-0.94001892,0.17998718,31.19994049,0.13202405
'3:05.500',0.54002228,-0.94001892,0.17998718,31.19994049,0.13202405
'3:05.625',0.54002228,-0.95000000,0.17998718,31.19994049,0.13202405
'3:05.750',0.55002197,-0.94001892,0.17998718,31.19994049,0.13202405
'3:05.875',0.54002228,-0.94001892,0.17998718,31.19994049,0.13202405
'3:06.000',0.54002228,-0.94001892,0.17998718,31.19994049,0.13202405
'3:06.125',0.54002228,-0.94001892,0.17998718,31.19994049,0.13202405
'3:06.250',0.53002258,-0.94001892,0.17998718,31.19994049,0.13202405
'3:06.375',0.54002228,-0.94001892,0.17998718,31.19994049,0.13202405
'3:06.500',0.54002228,-0.95000000,0.17998718,31.19994049,0.13202405
'3:06.625',0.54002228,-0.94001892,0.17998718,31.19994049,0.13500603
'3:06.750',0.55002197,-0.94001892,0.17998718,31.19994049,0.13202405
'3:06.875',0.54002228,-0.94001892,0.17998718,31.19994049,0.13202405
'3:07.000',0.54002228,-0.94001892,0.17998718,31.19994049,0.13202405
'3:07.125',0.55002197,-0.95000000,0.17998718,31.19994049,0.13202405
'3:07.250',0.54002228,-0.94001892,0.17998718,31.19994049,0.13202405
'3:07.375',0.54002228,-0.94001892,0.17998718,31.19994049,0.13202405
'3:07.500',0.54002228,-0.94001892,0.17998718,30.99998321,0.13202405
'3:07.625',0.54002228,-0.94001892,0.17998718,31.19994049,0.13202405
'3:07.750',0.54002228,-0.95000000,0.17998718,31.19994049,0.13202405
'3:07.875',0.54002228,-0.95000000,0.17998718,31.19994049,0.13202405
'3:08.000',0.54002228,-0.95000000,0.17998718,31.19994049,0.13202405
'3:08.125',0.54002228,-0.94001892,0.17998718,31.19994049,0.13202405
'3:08.250',0.54002228,-0.94001892,0.17998718,31.19994049,0.13202405
'3:08.375',0.54002228,-0.95000000,0.17998718,31.19994049,0.13202405
'3:08.500',0.54002228,-0.95000000,0.17998718,31.19994049,0.13202405
'3:08.625',0.54002228,-0.94001892,0.17998718,31.19994049,0.13202405
'3:08.750',0.54002228,-0.95000000,0.16998291,31.19994049,0.13202405
'3:08.875',0.54002228,-0.94001892,0.17998718,31.19994049,0.13202405
'3:09.000',0.54002228,-0.94001892,0.17998718,31.19994049,0.13202405
'3:09.125',0.54002228,-0.95000000,0.17998718,31.19994049,0.13202405
'3:09.250',0.54002228,-0.94001892,0.17998718,31.19994049,0.13202405
'3:09.375',0.54002228,-0.94001892,0.17998718,31.19994049,0.13202405
'3:09.500',0.55002197,-0.94001892,0.17998718,31.19994049,0.13202405
'3:09.625',0.54002228,-0.94001892,0.17998718,31.19994049,0.13202405
'3:09.750',0.55002197,-0.94001892,0.17998718,31.19994049,0.13202405
'3:09.875',0.53002258,-0.94001892,0.17998718,31.19994049,0.13202405
'3:10.000',0.54002228,-0.94001892,0.17998718,31.19994049,0.13202405
'3:10.125',0.54002228,-0.95000000,0.17998718,31.19994049,0.13202405
'3:10.250',0.54002228,-0.94001892,0.17998718,31.19994049,0.13202405
'3:10.375',0.54002228,-0.94001892,0.17998718,31.19994049,0.13202405
'3:10.500',0.54002228,-0.94001892,0.17998718,31.19994049,0.13202405
'3:10.625',0.54002228,-0.94001892,0.17998718,31.19994049,0.13202405
'3:10.750',0.54002228,-0.95000000,0.17998718,31.19994049,0.13202405
'3:10.875',0.54002228,-0.94001892,0.17998718,31.19994049,0.13202405
'3:11.000',0.54002228,-0.95000000,0.17998718,31.19994049,0.13202405
'3:11.125',0.55002197,-0.94001892,0.17998718,31.19994049,0.13202405
'3:11.250',0.54002228,-0.95000000,0.17998718,31.19994049,0.13202405
'3:11.375',0.54002228,-0.94001892,0.17998718,31.19994049,0.13202405
'3:11.500',0.54002228,-0.94001892,0.17998718,31.19994049,0.13202405
'3:11.625',0.54002228,-0.95000000,0.17998718,31.19994049,0.13202405
'3:11.750',0.54002228,-0.95000000,0.17998718,31.19994049,0.13202405
'3:11.875',0.54002228,-0.94001892,0.17998718,31.19994049,0.13202405
'3:12.000',0.55002197,-0.94001892,0.17998718,31.19994049,0.13202405
'3:12.125',0.54002228,-0.95000000,0.17998718,31.19994049,0.13202405
'3:12.250',0.54002228,-0.94001892,0.17998718,31.19994049,0.13202405
'3:12.375',0.54002228,-0.95000000,0.17998718,31.19994049,0.13202405
'3:12.500',0.54002228,-0.94001892,0.17998718,31.19994049,0.13202405
'3:12.625',0.55002197,-0.95000000,0.17998718,31.19994049,0.13202405
'3:12.750',0.53002258,-0.95000000,0.17998718,31.19994049,0.13202405
'3:12.875',0.54002228,-0.95000000,0.17998718,31.19994049,0.13202405
'3:13.000',0.54002228,-0.95000000,0.17998718,31.19994049,0.13202405
'3:13.125',0.54002228,-0.95000000,0.17998718,31.19994049,0.13202405
'3:13.250',0.54002228,-0.94001892,0.17998718,31.19994049,0.13202405
'3:13.375',0.54002228,-0.94001892,0.17998718,31.19994049,0.13202405
'3:13.500',0.54002228,-0.95000000,0.17998718,31.19994049,0.13202405
'3:13.625',0.54002228,-0.94001892,0.17998718,31.19994049,0.13202405
'3:13.750',0.54002228,-0.95000000,0.17998718,31.19994049,0.13202405
'3:13.875',0.54002228,-0.94001892,0.17998718,31.19994049,0.13202405
'3:14.000',0.54002228,-0.94001892,0.17998718,31.19994049,0.13202405
'3:14.125',0.54002228,-0.94001892,0.17998718,31.19994049,0.13002245
'3:14.250',0.54002228,-0.95000000,0.17998718,31.19994049,0.13202405
'3:14.375',0.54002228,-0.94001892,0.17998718,31.19994049,0.13202405
'3:14.500',0.54002228,-0.94001892,0.18999145,31.19994049,0.13202405
'3:14.625',0.54002228,-0.94001892,0.17998718,31.19994049,0.13202405
'3:14.750',0.54002228,-0.94001892,0.17998718,31.19994049,0.13202405
'3:14.875',0.54002228,-0.94001892,0.17998718,31.19994049,0.13202405
'3:15.000',0.55002197,-0.95000000,0.17998718,31.19994049,0.13202405
'3:15.125',0.54002228,-0.94001892,0.17998718,31.19994049,0.13202405
'3:15.250',0.54002228,-0.95000000,0.17998718,31.19994049,0.13202405
'3:15.375',0.55002197,-0.94001892,0.17998718,31.19994049,0.13202405
'3:15.500',0.54002228,-0.95000000,0.17998718,31.19994049,0.13202405
'3:15.625',0.54002228,-0.95000000,0.17998718,31.19994049,0.13202405
'3:15.750',0.54002228,-0.95000000,0.17998718,31.19994049,0.13202405
'3:15.875',0.54002228,-0.95000000,0.17998718,31.19994049,0.13002245
'3:16.000',0.54002228,-0.94001892,0.17998718,31.19994049,0.13202405
'3:16.125',0.54002228,-0.95000000,0.17998718,31.19994049,0.13202405
'3:16.250',0.54002228,-0.95000000,0.17998718,31.19994049,0.13202405
'3:16.375',0.55002197,-0.94001892,0.17998718,31.19994049,0.13002245
'3:16.500',0.54002228,-0.95000000,0.17998718,31.19994049,0.13202405
'3:16.625',0.54002228,-0.95000000,0.17998718,31.19994049,0.13202405
'3:16.750',0.54002228,-0.95000000,0.17998718,31.19994049,0.13202405
'3:16.875',0.54002228,-0.95000000,0.17998718,31.19994049,0.13202405
'3:17.000',0.54002228,-0.94001892,0.17998718,31.19994049,0.13202405
'3:17.125',0.54002228,-0.95000000,0.17998718,31.19994049,0.13202405
'3:17.250',0.54002228,-0.95000000,0.17998718,31.19994049,0.13202405
'3:17.375',0.55002197,-0.95000000,0.17998718,31.19994049,0.13202405
'3:17.500',0.54002228,-0.94001892,0.17998718,31.19994049,0.13002245
'3:17.625',0.54002228,-0.94001892,0.17998718,31.19994049,0.13202405
'3:17.750',0.54002228,-0.94001892,0.17998718,31.19994049,0.13202405
'3:17.875',0.54002228,-0.95000000,0.17998718,31.19994049,0.13202405
'3:18.000',0.54002228,-0.95000000,0.17998718,31.19994049,0.13002245
'3:18.125',0.54002228,-0.95000000,0.17998718,31.19994049,0.13202405
'3:18.250',0.54002228,-0.94001892,0.17998718,31.19994049,0.13002245
'3:18.375',0.54002228,-0.95000000,0.17998718,31.19994049,0.13202405
'3:18.500',0.53002258,-0.94001892,0.17998718,31.19994049,0.13202405
'3:18.625',0.54002228,-0.94001892,0.17998718,31.19994049,0.13002245
'3:18.750',0.54002228,-0.95000000,0.17998718,31.19994049,0.13002245
'3:18.875',0.54002228,-0.95000000,0.17998718,31.19994049,0.13002245
'3:19.000',0.54002228,-0.94001892,0.17998718,31.19994049,0.13202405
'3:19.125',0.54002228,-0.94001892,0.17998718,31.19994049,0.13202405
'3:19.250',0.53002258,-0.94001892,0.17998718,31.19994049,0.13202405
'3:19.375',0.54002228,-0.95000000,0.17998718,31.19994049,0.13202405
'3:19.500',0.54002228,-0.94001892,0.17998718,31.19994049,0.13202405
'3:19.625',0.54002228,-0.94001892,0.17998718,31.19994049,0.13202405
'3:19.750',0.54002228,-0.95000000,0.17998718,31.19994049,0.13002245
'3:19.875',0.54002228,-0.95000000,0.17998718,31.19994049,0.13002245
'3:20.000',0.54002228,-0.94001892,0.17998718,31.19994049,0.13202405
'3:20.125',0.54002228,-0.94001892,0.17998718,31.19994049,0.13002245
'3:20.250',0.54002228,-0.94001892,0.17998718,31.19994049,0.13002245
'3:20.375',0.54002228,-0.95000000,0.17998718,31.19994049,0.13002245
'3:20.500',0.54002228,-0.95000000,0.17998718,31.19994049,0.13202405
'3:20.625',0.54002228,-0.94001892,0.17998718,31.19994049,0.13002245
'3:20.750',0.54002228,-0.94001892,0.17998718,31.19994049,0.13002245
'3:20.875',0.54002228,-0.95000000,0.17998718,31.19994049,0.13002245
'3:21.000',0.54002228,-0.95000000,0.17998718,31.19994049,0.13202405
'3:21.125',0.54002228,-0.95000000,0.17998718,31.19994049,0.13002245
'3:21.250',0.53002258,-0.95000000,0.17998718,31.19994049,0.13202405
'3:21.375',0.54002228,-0.95000000,0.17998718,31.19994049,0.13202405
'3:21.500',0.54002228,-0.94001892,0.17998718,31.19994049,0.13002245
'3:21.625',0.54002228,-0.94001892,0.17998718,31.19994049,0.13002245
'3:21.750',0.53002258,-0.95000000,0.17998718,31.19994049,0.13002245
'3:21.875',0.54002228,-0.95000000,0.17998718,31.19994049,0.13002245
'3:22.000',0.54002228,-0.94001892,0.17998718,31.19994049,0.13002245
'3:22.125',0.54002228,-0.94001892,0.17998718,31.19994049,0.13002245
'3:22.250',0.54002228,-0.94001892,0.17998718,31.19994049,0.13002245
'3:22.375',0.54002228,-0.94001892,0.17998718,31.19994049,0.13002245
'3:22.500',0.53002258,-0.95000000,0.17998718,31.19994049,0.13002245
'3:22.625',0.54002228,-0.94001892,0.17998718,31.19994049,0.13002245
'3:22.750',0.54002228,-0.94001892,0.17998718,31.19994049,0.13002245
'3:22.875',0.53002258,-0.95000000,0.17998718,31.19994049,0.13002245
'3:23.000',0.54002228,-0.95000000,0.18999145,31.19994049,0.13002245
'3:23.125',0.54002228,-0.94001892,0.17998718,31.19994049,0.13002245
'3:23.250',0.54002228,-0.94001892,0.17998718,31.19994049,0.13202405
'3:23.375',0.54002228,-0.95000000,0.17998718,31.19994049,0.13002245
'3:23.500',0.55002197,-0.94001892,0.17998718,31.19994049,0.13002245
'3:23.625',0.53002258,-0.95000000,0.17998718,31.19994049,0.13002245
'3:23.750',0.53002258,-0.95000000,0.17998718,31.19994049,0.12802084
'3:23.875',0.54002228,-0.95000000,0.17998718,31.39995727,0.13002245
'3:24.000',0.53002258,-0.94001892,0.17998718,31.19994049,0.12802084
'3:24.125',0.54002228,-0.94001892,0.17998718,31.19994049,0.13002245
'3:24.250',0.54002228,-0.94001892,0.17998718,31.19994049,0.13002245
'3:24.375',0.54002228,-0.94001892,0.17998718,31.39995727,0.13002245
'3:24.500',0.54002228,-0.95000000,0.17998718,31.39995727,0.13002245
'3:24.625',0.54002228,-0.95000000,0.17998718,31.39995727,0.13002245
'3:24.750',0.54002228,-0.95000000,0.17998718,31.19994049,0.13002245
'3:24.875',0.54002228,-0.95000000,0.16998291,31.19994049,0.13002245
'3:25.000',0.54002228,-0.94001892,0.17998718,31.39995727,0.13002245
'3:25.125',0.54002228,-0.95000000,0.17998718,31.19994049,0.13002245
'3:25.250',0.53002258,-0.95000000,0.16998291,31.19994049,0.13002245
'3:25.375',0.54002228,-0.95000000,0.17998718,31.39995727,0.13002245
'3:25.500',0.54002228,-0.95000000,0.17998718,31.19994049,0.13002245
'3:25.625',0.54002228,-0.94001892,0.17998718,31.39995727,0.13002245
'3:25.750',0.54002228,-0.95000000,0.17998718,31.39995727,0.12802084
'3:25.875',0.54002228,-0.95000000,0.17998718,31.39995727,0.13002245
'3:26.000',0.53002258,-0.94001892,0.17998718,31.19994049,0.13002245
'3:26.125',0.54002228,-0.95000000,0.17998718,31.39995727,0.13002245
'3:26.250',0.54002228,-0.95000000,0.17998718,31.19994049,0.13002245
'3:26.375',0.54002228,-0.94001892,0.17998718,31.39995727,0.13002245
'3:26.500',0.53002258,-0.94001892,0.17998718,31.19994049,0.13002245
'3:26.625',0.54002228,-0.95000000,0.17998718,31.19994049,0.13002245
'3:26.750',0.54002228,-0.94001892,0.17998718,31.19994049,0.13002245
'3:26.875',0.54002228,-0.95000000,0.17998718,31.39995727,0.13002245
'3:27.000',0.54002228,-0.94001892,0.17998718,31.39995727,0.13002245
'3:27.125',0.54002228,-0.94001892,0.17998718,31.19994049,0.13002245
'3:27.250',0.53002258,-0.95000000,0.17998718,31.39995727,0.13002245
'3:27.375',0.54002228,-0.95000000,0.17998718,31.39995727,0.13002245
'3:27.500',0.54002228,-0.95000000,0.17998718,31.39995727,0.12802084
'3:27.625',0.54002228,-0.95000000,0.17998718,31.39995727,0.12802084
'3:27.750',0.54002228,-0.95000000,0.17998718,31.39995727,0.13002245
'3:27.875',0.54002228,-0.94001892,0.17998718,31.19994049,0.13002245
'3:28.000',0.54002228,-0.95000000,0.17998718,31.19994049,0.13002245
'3:28.125',0.54002228,-0.95000000,0.17998718,31.39995727,0.13002245
'3:28.250',0.54002228,-0.95000000,0.17998718,31.39995727,0.13002245
'3:28.375',0.54002228,-0.95000000,0.17998718,31.39995727,0.12802084
'3:28.500',0.54002228,-0.95000000,0.17998718,31.39995727,0.13002245
'3:28.625',0.54002228,-0.94001892,0.17998718,31.19994049,0.13002245
'3:28.750',0.54002228,-0.94001892,0.17998718,31.39995727,0.12802084
'3:28.875',0.54002228,-0.95000000,0.17998718,31.39995727,0.12802084
'3:29.000',0.54002228,-0.94001892,0.18999145,31.19994049,0.13002245
'3:29.125',0.54002228,-0.94001892,0.17998718,31.19994049,0.13002245
'3:29.250',0.54002228,-0.94001892,0.17998718,31.39995727,0.13002245
'3:29.375',0.54002228,-0.95000000,0.17998718,31.39995727,0.13002245
'3:29.500',0.54002228,-0.95000000,0.17998718,31.39995727,0.13002245
'3:29.625',0.54002228,-0.95000000,0.17998718,31.39995727,0.13002245
'3:29.750',0.54002228,-0.94001892,0.17998718,31.39995727,0.12802084
'3:29.875',0.54002228,-0.94001892,0.18999145,31.39995727,0.13002245
'3:30.000',0.54002228,-0.95000000,0.17998718,31.39995727,0.12802084
'3:30.125',0.54002228,-0.95000000,0.17998718,31.39995727,0.13002245
'3:30.250',0.54002228,-0.95000000,0.17998718,31.19994049,0.13002245
'3:30.375',0.54002228,-0.94001892,0.17998718,31.39995727,0.12802084
'3:30.500',0.54002228,-0.94001892,0.17998718,31.39995727,0.12802084
'3:30.625',0.54002228,-0.94001892,0.17998718,31.39995727,0.13002245
'3:30.750',0.54002228,-0.94001892,0.17998718,31.39995727,0.13002245
'3:30.875',0.54002228,-0.94001892,0.17998718,31.39995727,0.12802084
'3:31.000',0.53002258,-0.95000000,0.17998718,31.39995727,0.13002245
'3:31.125',0.54002228,-0.95000000,0.17998718,31.39995727,0.12802084
'3:31.250',0.54002228,-0.94001892,0.17998718,31.39995727,0.13002245
'3:31.375',0.53002258,-0.95000000,0.17998718,31.39995727,0.12802084
'3:31.500',0.54002228,-0.95000000,0.17998718,31.39995727,0.13002245
'3:31.625',0.54002228,-0.95000000,0.17998718,31.39995727,0.13002245
'3:31.750',0.53002258,-0.95000000,0.17998718,31.19994049,0.12802084
'3:31.875',0.54002228,-0.94001892,0.17998718,31.39995727,0.13002245
'3:32.000',0.54002228,-0.94001892,0.17998718,31.39995727,0.12802084
'3:32.125',0.54002228,-0.94001892,0.17998718,31.39995727,0.12802084
'3:32.250',0.54002228,-0.94001892,0.17998718,31.39995727,0.13002245
'3:32.375',0.54002228,-0.94001892,0.17998718,31.39995727,0.12802084
'3:32.500',0.53002258,-0.94001892,0.17998718,31.39995727,0.12802084
'3:32.625',0.54002228,-0.94001892,0.17998718,31.39995727,0.13002245
'3:32.750',0.54002228,-0.95000000,0.17998718,31.19994049,0.13002245
'3:32.875',0.54002228,-0.95000000,0.17998718,31.39995727,0.12802084
'3:33.000',0.54002228,-0.95000000,0.17998718,31.39995727,0.13002245
'3:33.125',0.55002197,-0.95000000,0.17998718,31.39995727,0.12802084
'3:33.250',0.54002228,-0.94001892,0.17998718,31.39995727,0.12802084
'3:33.375',0.55002197,-0.95000000,0.17998718,31.39995727,0.13002245
'3:33.500',0.54002228,-0.95000000,0.17998718,31.39995727,0.12802084
'3:33.625',0.54002228,-0.95000000,0.17998718,31.39995727,0.12802084
'3:33.750',0.54002228,-0.94001892,0.17998718,31.39995727,0.13002245
'3:33.875',0.54002228,-0.95000000,0.17998718,31.39995727,0.12802084
'3:34.000',0.54002228,-0.94001892,0.17998718,31.39995727,0.12802084
'3:34.125',0.54002228,-0.94001892,0.17998718,31.39995727,0.12802084
'3:34.250',0.53002258,-0.94001892,0.17998718,31.39995727,0.12802084
'3:34.375',0.54002228,-0.94001892,0.17998718,31.39995727,0.12802084
'3:34.500',0.54002228,-0.95000000,0.17998718,31.39995727,0.12802084
'3:34.625',0.53002258,-0.94001892,0.17998718,31.39995727,0.12802084
'3:34.750',0.54002228,-0.94001892,0.17998718,31.39995727,0.12802084
'3:34.875',0.54002228,-0.94001892,0.17998718,31.39995727,0.13002245
'3:35.000',0.54002228,-0.94001892,0.17998718,31.39995727,0.12802084
'3:35.125',0.53002258,-0.95000000,0.17998718,31.39995727,0.12802084
'3:35.250',0.55002197,-0.95000000,0.17998718,31.39995727,0.12802084
'3:35.375',0.55002197,-0.94001892,0.17998718,31.39995727,0.12802084
'3:35.500',0.54002228,-0.94001892,0.17998718,31.39995727,0.12802084
'3:35.625',0.54002228,-0.94001892,0.17998718,31.39995727,0.12802084
'3:35.750',0.54002228,-0.95000000,0.17998718,31.39995727,0.12802084
'3:35.875',0.54002228,-0.95000000,0.17998718,31.39995727,0.12802084
'3:36.000',0.54002228,-0.95000000,0.17998718,31.39995727,0.12802084
'3:36.125',0.54002228,-0.94001892,0.17998718,31.39995727,0.13002245
'3:36.250',0.54002228,-0.94001892,0.17998718,31.39995727,0.12802084
'3:36.375',0.53002258,-0.95000000,0.17998718,31.39995727,0.12802084
'3:36.500',0.54002228,-0.95000000,0.17998718,31.39995727,0.12802084
'3:36.625',0.54002228,-0.95000000,0.18999145,31.39995727,0.12802084
'3:36.750',0.53002258,-0.94001892,0.17998718,31.39995727,0.13002245
'3:36.875',0.54002228,-0.94001892,0.17998718,31.39995727,0.13002245
'3:37.000',0.54002228,-0.94001892,0.17998718,31.39995727,0.12802084
'3:37.125',0.53002258,-0.94001892,0.17998718,31.39995727,0.13002245
'3:37.250',0.53002258,-0.95000000,0.17998718,31.39995727,0.12802084
'3:37.375',0.54002228,-0.95000000,0.17998718,31.39995727,0.13002245
'3:37.500',0.54002228,-0.94001892,0.17998718,31.39995727,0.13002245
'3:37.625',0.54002228,-0.95000000,0.17998718,31.39995727,0.13002245
'3:37.750',0.54002228,-0.94001892,0.17998718,31.39995727,0.12802084
'3:37.875',0.54002228,-0.94001892,0.18999145,31.39995727,0.12802084
'3:38.000',0.54002228,-0.94001892,0.17998718,31.39995727,0.12802084
'3:38.125',0.54002228,-0.95000000,0.17998718,31.39995727,0.12802084
'3:38.250',0.54002228,-0.95000000,0.17998718,31.39995727,0.12802084
'3:38.375',0.54002228,-0.95000000,0.17998718,31.39995727,0.12802084
'3:38.500',0.53002258,-0.95000000,0.17998718,31.39995727,0.12802084
'3:38.625',0.54002228,-0.94001892,0.17998718,31.39995727,0.12802084
'3:38.750',0.54002228,-0.94001892,0.17998718,31.39995727,0.12802084
'3:38.875',0.53002258,-0.95000000,0.17998718,31.39995727,0.12802084
'3:39.000',0.53002258,-0.95000000,0.17998718,31.39995727,0.12802084
'3:39.125',0.54002228,-0.95000000,0.17998718,31.39995727,0.12802084
'3:39.250',0.54002228,-0.94001892,0.17998718,31.39995727,0.12802084
'3:39.375',0.54002228,-0.94001892,0.17998718,31.39995727,0.12802084
'3:39.500',0.54002228,-0.95000000,0.17998718,31.39995727,0.12802084
'3:39.625',0.54002228,-0.95000000,0.17998718,31.39995727,0.12802084
'3:39.750',0.53002258,-0.95000000,0.17998718,31.39995727,0.13002245
'3:39.875',0.54002228,-0.94001892,0.17998718,31.39995727,0.12802084
'3:40.000',0.54002228,-0.95000000,0.17998718,31.39995727,0.12802084
'3:40.125',0.54002228,-0.95000000,0.17998718,31.39995727,0.12802084
'3:40.250',0.54002228,-0.95000000,0.17998718,31.39995727,0.13002245
'3:40.375',0.54002228,-0.94001892,0.17998718,31.39995727,0.12802084
