Elapsed time,ax,ay,az,temp,EDA
'0:00.000',0.91998901,-0.72000000,-0.07002777,26.40001373,1.10304129
'0:00.125',0.92997955,-0.73004730,-0.12000214,26.40001373,1.10700021
'0:00.250',0.94996063,-0.67004730,-0.10003967,26.40001373,1.10700021
'0:00.375',0.96999542,-0.74003784,-0.08003174,26.40001373,1.10700021
'0:00.500',0.97998596,-0.65000946,-0.06002380,26.40001373,1.09704941
'0:00.625',0.97998596,-0.62003784,-0.14001007,26.40001373,1.09704941
'0:00.750',0.87997314,-0.67004730,-0.20003388,26.40001373,1.09405347
'0:00.875',0.89995422,-0.71000946,-0.21003784,26.60001679,1.08704511
'0:01.000',1.01994812,-0.65000946,-0.13000610,26.40001373,1.09405347
'0:01.125',0.96999542,-0.68003784,-0.07002777,26.40001373,1.09405347
'0:01.250',0.93997009,-0.71000946,-0.16001801,26.40001373,1.09405347
'0:01.375',0.91998901,-0.75002838,-0.19002991,26.40001373,1.09405347
'0:01.500',0.93997009,-0.72000000,-0.17002197,26.40001373,1.09405347
'0:01.625',0.93997009,-0.73004730,-0.12000214,26.40001373,1.09704941
'0:01.750',0.99996704,-0.75002838,-0.09003571,26.40001373,1.09704941
'0:01.875',0.88996368,-0.79004730,-0.11004364,26.40001373,1.09405347
'0:02.000',0.79999512,-0.84000000,-0.13000610,26.40001373,1.08704511
'0:02.125',0.66002014,-0.91004730,-0.09003571,26.40001373,1.08704511
'0:02.250',0.66002014,-0.94001892,-0.08003174,26.40001373,1.09405347
'0:02.375',0.57005158,-0.98003784,-0.08003174,26.40001373,1.09405347
'0:02.500',0.39000702,-0.95000946,-0.09003571,26.40001373,1.09704941
'0:02.625',0.41004181,-1.06001892,-0.10003967,26.40001373,1.09704941
'0:02.750',0.38001648,-1.02000000,-0.03001190,26.40001373,1.09704941
'0:02.875',0.48002930,-0.99002838,-0.06002380,26.40001373,1.09704941
'0:03.000',0.70003601,-1.02000000,-0.15001404,26.40001373,1.10400427
'0:03.125',0.56000732,-0.96000000,-0.10003967,26.60001679,1.10400427
'0:03.250',0.70003601,-0.94001892,-0.06002380,26.60001679,1.09704941
'0:03.375',0.76996979,-0.88001892,-0.07002777,26.40001373,1.09704941
'0:03.500',0.80998566,-0.83000946,-0.21003784,26.40001373,1.09405347
'0:03.625',0.85999207,-0.78000000,-0.14001007,26.60001679,1.09704941
'0:03.750',0.88996368,-0.78000000,-0.14001007,26.60001679,1.09405347
'0:03.875',0.89995422,-0.73004730,-0.14001007,26.60001679,1.09405347
'0:04.000',0.90999847,-0.75002838,-0.16001801,26.60001679,1.09405347
'0:04.125',0.92997955,-0.73004730,-0.17002197,26.40001373,1.09405347
'0:04.250',0.94996063,-0.68003784,-0.14001007,26.60001679,1.09405347
'0:04.375',0.98997650,-0.67004730,-0.12000214,26.40001373,1.09004105
'0:04.500',0.95995117,-0.68003784,-0.22995483,26.60001679,1.09405347
'0:04.625',0.94996063,-0.67004730,-0.13000610,26.60001679,1.09405347
'0:04.750',0.96999542,-0.67004730,-0.14001007,26.60001679,1.09405347
'0:04.875',1.03998291,-0.61004730,-0.15001404,26.40001373,1.09704941
'0:05.000',0.99996704,-0.64001892,-0.17002197,26.60001679,1.09704941
'0:05.125',0.97998596,-0.63002838,-0.16001801,26.60001679,1.09704941
'0:05.250',0.99996704,-0.61004730,-0.15001404,26.60001679,1.09704941
'0:05.375',1.01994812,-0.61004730,-0.15001404,26.60001679,1.09704941
'0:05.500',0.99996704,-0.62003784,-0.17002197,26.60001679,1.09704941
'0:05.625',0.99996704,-0.63002838,-0.17002197,26.60001679,1.09405347
'0:05.750',0.99996704,-0.63002838,-0.16001801,26.60001679,1.09704941
'0:05.875',1.00995758,-0.61004730,-0.15001404,26.60001679,1.09704941
'0:06.000',0.99996704,-0.62003784,-0.16001801,26.60001679,1.09405347
'0:06.125',0.99996704,-0.61004730,-0.17002197,26.60001679,1.09405347
'0:06.250',0.99996704,-0.61004730,-0.16001801,26.60001679,1.09405347
'0:06.375',0.99996704,-0.62003784,-0.16001801,26.60001679,1.09405347
'0:06.500',0.99996704,-0.61004730,-0.16001801,26.60001679,1.09405347
'0:06.625',0.99996704,-0.62003784,-0.17002197,26.40001373,1.09405347
'0:06.750',0.99996704,-0.62003784,-0.17002197,26.60001679,1.09405347
'0:06.875',0.99996704,-0.61004730,-0.16001801,26.60001679,1.09405347
'0:07.000',0.99996704,-0.61004730,-0.17002197,26.60001679,1.09405347
'0:07.125',1.00995758,-0.62003784,-0.16001801,26.60001679,1.09405347
'0:07.250',0.99996704,-0.62003784,-0.16001801,26.40001373,1.09405347
'0:07.375',0.99996704,-0.62003784,-0.16001801,26.60001679,1.09405347
'0:07.500',0.99996704,-0.62003784,-0.17002197,26.60001679,1.09405347
'0:07.625',0.99996704,-0.62003784,-0.16001801,26.60001679,1.09004105
'0:07.750',1.00995758,-0.62003784,-0.17002197,26.60001679,1.09704941
'0:07.875',0.99996704,-0.62003784,-0.15001404,26.60001679,1.09405347
'0:08.000',0.96999542,-0.64001892,-0.16001801,26.60001679,1.09405347
'0:08.125',0.98997650,-0.65000946,-0.16001801,26.60001679,1.09405347
'0:08.250',0.97998596,-0.66000000,-0.16001801,26.60001679,1.09405347
'0:08.375',0.97998596,-0.66000000,-0.16001801,26.60001679,1.09405347
'0:08.500',0.96999542,-0.67004730,-0.17002197,26.60001679,1.09405347
'0:08.625',0.96999542,-0.67004730,-0.17002197,26.60001679,1.09405347
'0:08.750',0.98997650,-0.67004730,-0.16001801,26.60001679,1.08704511
'0:08.875',0.97998596,-0.66000000,-0.16001801,26.60001679,1.08704511
'0:09.000',0.98997650,-0.66000000,-0.16001801,26.60001679,1.09405347
'0:09.125',1.01994812,-1.37994324,-0.25996673,26.60001679,1.09405347
'0:09.250',1.00995758,-1.08999054,0.00000000,26.60001679,1.09405347
'0:09.375',0.96999542,-0.16001892,0.16997650,26.60001679,1.08704511
'0:09.500',0.71002655,0.27996216,0.42998871,26.60001679,1.08704511
'0:09.625',0.71996338,0.12000000,0.57995727,26.60001679,1.09405347
'0:09.750',0.86998260,0.00999054,0.72997131,26.80001984,1.09405347
'0:09.875',0.73999817,0.13998108,0.74997925,26.60001679,1.09405347
'0:10.000',0.74998871,0.12999054,0.77999115,26.80001984,1.09405347
'0:10.125',0.71002655,0.15996216,0.76998718,26.80001984,1.09405347
'0:10.250',0.71002655,0.16995270,0.77999115,26.80001984,1.09405347
'0:10.375',0.71996338,0.13998108,0.77999115,26.60001679,1.09405347
'0:10.500',0.72995392,0.12999054,0.75998321,26.60001679,1.09405347
'0:10.625',0.71996338,0.14997162,0.78999512,26.80001984,1.09405347
'0:10.750',0.71002655,0.07998108,0.82996551,26.60001679,1.09405347
'0:10.875',0.61001373,0.21996216,0.66999298,26.80001984,1.09405347
'0:11.000',0.70003601,0.30999054,0.77999115,26.80001984,1.09405347
'0:11.125',0.69004547,0.24999054,0.82996551,26.80001984,1.09405347
'0:11.250',0.67001068,0.12999054,0.80995758,26.80001984,1.09405347
'0:11.375',0.68000122,0.08997162,0.74997925,26.80001984,1.09704941
'0:11.500',0.71002655,0.03996216,0.88998932,26.80001984,1.09704941
'0:11.625',0.77996033,0.07998108,0.77999115,26.80001984,1.09704941
'0:11.750',0.74998871,0.15996216,0.79999908,26.60001679,1.10400427
'0:11.875',0.69004547,0.18999054,0.78999512,26.80001984,1.10400427
'0:12.000',0.61001373,0.40995270,0.78999512,26.80001984,1.10700021
'0:12.125',0.54002625,0.43998108,0.68995544,26.60001679,1.10700021
'0:12.250',0.50001038,0.48999054,0.62997711,26.80001984,1.11700452
'0:12.375',0.48002930,0.54000000,0.70996338,26.80001984,1.11700452
'0:12.500',0.47003876,0.55998108,0.67999695,26.60001679,1.11700452
'0:12.625',0.49001984,0.54000000,0.65998901,26.80001984,1.11700452
'0:12.750',0.49001984,0.61998108,0.60996918,26.80001984,1.12304990
'0:12.875',0.42003235,0.68997162,0.60996918,26.80001984,1.11700452
'0:13.000',0.43002289,0.69996216,0.65998901,26.80001984,1.11700452
'0:13.125',0.36003540,0.74997162,0.60996918,26.80001984,1.11700452
'0:13.250',0.50001038,0.73998108,0.58996124,26.80001984,1.12304990
'0:13.375',0.53003571,0.61998108,0.62997711,26.80001984,1.12304990
'0:13.500',0.53003571,0.56997162,0.61997314,26.80001984,1.12304990
'0:13.625',0.40005127,0.67998108,0.60996918,26.80001984,1.12304990
'0:13.750',0.40005127,0.66000000,0.60996918,26.80001984,1.12304990
'0:13.875',0.40005127,0.72999054,0.63998108,26.80001984,1.11700452
'0:14.000',0.42003235,0.61998108,0.58996124,26.80001984,1.11700452
'0:14.125',0.50001038,0.63996216,0.60996918,26.80001984,1.11700452
'0:14.250',0.48002930,0.67998108,0.58996124,26.80001984,1.12304990
'0:14.375',0.35004486,0.73998108,0.57995727,26.80001984,1.11700452
'0:14.500',0.35004486,0.72999054,0.55999481,26.80001984,1.11700452
'0:14.625',0.45000397,0.69996216,0.58996124,26.80001984,1.11700452
'0:14.750',0.45000397,0.61998108,0.57995727,26.80001984,1.12304990
'0:14.875',0.39000702,0.48000000,0.52998291,26.80001984,1.12304990
'0:15.000',0.47003876,0.38997162,0.66999298,26.80001984,1.12304990
'0:15.125',0.60002319,0.28995270,1.25999969,26.80001984,1.12304990
'0:15.250',0.80998566,-0.69002838,0.20999237,26.80001984,1.12304990
'0:15.375',0.87997314,-1.06001892,0.18998444,26.80001984,1.12304990
'0:15.500',1.01994812,-0.72000000,0.25996673,26.80001984,1.12604584
'0:15.625',0.91998901,-0.71000946,0.03997040,26.80001984,1.12604584
'0:15.750',0.79999512,-1.11996216,-0.70996338,26.80001984,1.12604584
'0:15.875',0.90999847,-0.80003784,-0.05001984,26.80001984,1.13300070
'0:16.000',1.02999237,-0.74003784,-0.19002991,26.80001984,1.13300070
'0:16.125',0.92997955,-0.54000000,-0.10003967,26.80001984,1.13605014
'0:16.250',1.00995758,-0.55004730,-0.08003174,26.80001984,1.13605014
'0:16.375',1.02999237,-0.24000000,-0.01000397,26.80001984,1.13605014
'0:16.500',1.01994812,-0.41000946,0.09999420,26.80001984,1.12604584
'0:16.625',1.33996765,-0.50003784,-0.23995880,26.80001984,1.12604584
'0:16.750',1.13999573,-0.38003784,-0.14001007,26.80001984,1.12604584
'0:16.875',1.17995788,-0.44003784,-0.07002777,26.80001984,1.12604584
'0:17.000',1.18994842,-0.36000000,-0.10003967,26.80001984,1.12604584
'0:17.125',1.13999573,-0.40001892,-0.10003967,26.80001984,1.12604584
'0:17.250',1.12995148,-0.40001892,-0.11004364,26.80001984,1.12604584
'0:17.375',1.11996094,-0.41000946,-0.10003967,26.80001984,1.12604584
'0:17.500',1.13999573,-0.41000946,-0.09003571,27.00002289,1.12604584
'0:17.625',1.10997040,-0.40001892,-0.12000214,26.80001984,1.12604584
'0:17.750',1.11996094,-0.43004730,-0.11004364,27.00002289,1.12604584
'0:17.875',1.11996094,-0.43004730,-0.10003967,26.80001984,1.12604584
'0:18.000',1.09997986,-0.43004730,-0.10003967,26.80001984,1.12604584
'0:18.125',1.09997986,-0.43004730,-0.10003967,26.80001984,1.12604584
'0:18.250',1.10997040,-0.44003784,-0.10003967,26.80001984,1.12304990
'0:18.375',1.11996094,-0.44003784,-0.11004364,26.80001984,1.12304990
'0:18.500',1.11996094,-0.44003784,-0.11004364,27.00002289,1.12304990
'0:18.625',1.11996094,-0.44003784,-0.10003967,26.80001984,1.12304990
'0:18.750',1.11996094,-0.44003784,-0.19002991,27.00002289,1.12304990
'0:18.875',1.08998932,-0.44003784,-0.09003571,27.00002289,1.12304990
'0:19.000',1.09997986,-0.44003784,-0.10003967,26.80001984,1.12304990
'0:19.125',1.10997040,-0.44003784,-0.10003967,27.00002289,1.12604584
'0:19.250',1.08998932,-0.44003784,-0.10003967,27.00002289,1.12604584
'0:19.375',1.09997986,-0.43004730,-0.11004364,27.00002289,1.12604584
'0:19.500',1.10997040,-0.43004730,-0.10003967,26.80001984,1.12604584
'0:19.625',1.09997986,-0.43004730,-0.10003967,27.00002289,1.12304990
'0:19.750',1.10997040,-0.43004730,-0.10003967,27.00002289,1.12304990
'0:19.875',1.11996094,-0.43004730,-0.10003967,27.00002289,1.12304990
'0:20.000',1.11996094,-0.43004730,-0.11004364,26.80001984,1.11700452
'0:20.125',1.19999268,-0.54000000,-0.10003967,27.00002289,1.12304990
'0:20.250',1.13999573,-0.30000000,-0.05001984,27.00002289,1.12304990
'0:20.375',1.23995483,-0.21002838,-0.09003571,27.00002289,1.12304990
'0:20.500',1.08998932,-0.30000000,-0.13000610,27.00002289,1.12304990
'0:20.625',1.20998321,-0.35000946,-0.14001007,27.00002289,1.12604584
'0:20.750',1.14998627,-0.32003784,-0.17002197,27.00002289,1.12304990
'0:20.875',1.13999573,-0.35000946,-0.15001404,27.00002289,1.12304990
'0:21.000',1.10997040,-0.41000946,-0.18002594,27.00002289,1.12304990
'0:21.125',1.11996094,-0.40001892,-0.17002197,27.00002289,1.12304990
'0:21.250',1.12995148,-0.40001892,-0.17002197,27.00002289,1.12304990
'0:21.375',1.10997040,-0.42000000,-0.17002197,27.00002289,1.11700452
'0:21.500',1.10997040,-0.43004730,-0.17002197,27.00002289,1.12304990
'0:21.625',1.10997040,-0.41000946,-0.17002197,27.00002289,1.12304990
'0:21.750',1.11996094,-0.41000946,-0.18002594,27.00002289,1.11700452
'0:21.875',1.11996094,-0.41000946,-0.17002197,27.00002289,1.11700452
'0:22.000',1.11996094,-0.41000946,-0.18002594,27.00002289,1.11700452
'0:22.125',1.11996094,-0.41000946,-0.18002594,27.00002289,1.11700452
'0:22.250',1.11996094,-0.41000946,-0.18002594,27.00002289,1.11700452
'0:22.375',1.11996094,-0.41000946,-0.18002594,27.00002289,1.11700452
'0:22.500',1.10997040,-0.41000946,-0.18002594,27.00002289,1.12304990
'0:22.625',1.11996094,-0.41000946,-0.18002594,27.00002289,1.11304559
'0:22.750',1.11996094,-0.41000946,-0.18002594,27.00002289,1.12304990
'0:22.875',1.11996094,-0.40001892,-0.18002594,27.00002289,1.12304990
'0:23.000',1.10997040,-0.41000946,-0.18002594,27.00002289,1.12304990
'0:23.125',1.11996094,-0.41000946,-0.18002594,27.00002289,1.12304990
'0:23.250',1.12995148,-0.40001892,-0.18002594,27.00002289,1.12304990
'0:23.375',1.11996094,-0.41000946,-0.18002594,27.00002289,1.12304990
'0:23.500',1.10997040,-0.41000946,-0.18002594,27.00002289,1.12304990
'0:23.625',1.11996094,-0.41000946,-0.18002594,27.00002289,1.12304990
'0:23.750',1.11996094,-0.41000946,-0.18002594,27.00002289,1.12304990
'0:23.875',1.11996094,-0.41000946,-0.18002594,27.00002289,1.11700452
'0:24.000',1.10997040,-0.41000946,-0.18002594,27.00002289,1.11700452
'0:24.125',1.11996094,-0.42000000,-0.18002594,27.00002289,1.12304990
'0:24.250',1.11996094,-0.41000946,-0.18002594,27.00002289,1.11700452
'0:24.375',1.10997040,-0.41000946,-0.18002594,27.00002289,1.11700452
'0:24.500',1.10997040,-0.42000000,-0.18002594,27.20002594,1.11700452
'0:24.625',1.11996094,-0.41000946,-0.18002594,27.00002289,1.11700452
'0:24.750',1.09997986,-0.43004730,-0.18002594,27.00002289,1.11700452
'0:24.875',1.11996094,-0.43004730,-0.18002594,27.00002289,1.11700452
'0:25.000',1.10997040,-0.43004730,-0.19002991,27.00002289,1.11304559
'0:25.125',1.10997040,-0.42000000,-0.18002594,27.00002289,1.11304559
'0:25.250',1.10997040,-0.42000000,-0.19002991,27.00002289,1.10700021
'0:25.375',1.10997040,-0.42000000,-0.18002594,27.00002289,1.10700021
'0:25.500',1.10997040,-0.42000000,-0.18002594,27.00002289,1.10700021
'0:25.625',1.10997040,-0.42000000,-0.18002594,27.00002289,1.10700021
'0:25.750',1.10997040,-0.42000000,-0.18002594,27.20002594,1.10700021
'0:25.875',1.09997986,-0.42000000,-0.19002991,27.20002594,1.10700021
'0:26.000',1.10997040,-0.42000000,-0.19002991,27.00002289,1.10700021
'0:26.125',1.11996094,-0.42000000,-0.18002594,27.00002289,1.10400427
'0:26.250',1.10997040,-0.42000000,-0.18002594,27.20002594,1.10400427
'0:26.375',1.11996094,-0.42000000,-0.18002594,27.20002594,1.10400427
'0:26.500',1.11996094,-0.42000000,-0.18002594,27.20002594,1.10400427
'0:26.625',1.10997040,-0.42000000,-0.18002594,27.20002594,1.10400427
'0:26.750',1.11996094,-0.42000000,-0.18002594,27.20002594,1.09405347
'0:26.875',1.10997040,-0.42000000,-0.19002991,27.00002289,1.09704941
'0:27.000',1.10997040,-0.42000000,-0.18002594,27.20002594,1.09704941
'0:27.125',1.10997040,-0.42000000,-0.18002594,27.20002594,1.09704941
'0:27.250',1.10997040,-0.42000000,-0.18002594,27.00002289,1.09405347
'0:27.375',1.10997040,-0.41000946,-0.19002991,27.20002594,1.09405347
'0:27.500',1.10997040,-0.43004730,-0.19002991,27.20002594,1.09405347
'0:27.625',1.11996094,-0.42000000,-0.19002991,27.20002594,1.09405347
'0:27.750',1.10997040,-0.42000000,-0.19002991,27.20002594,1.09405347
'0:27.875',1.10997040,-0.42000000,-0.19002991,27.20002594,1.09405347
'0:28.000',1.10997040,-0.42000000,-0.19002991,27.20002594,1.09405347
'0:28.125',1.10997040,-0.43004730,-0.19002991,27.20002594,1.08704511
'0:28.250',1.10997040,-0.42000000,-0.18002594,27.20002594,1.09405347
'0:28.375',1.10997040,-0.42000000,-0.18002594,27.20002594,1.09405347
'0:28.500',1.10997040,-0.42000000,-0.18002594,27.20002594,1.08704511
'0:28.625',1.10997040,-0.42000000,-0.18002594,27.20002594,1.08704511
'0:28.750',1.10997040,-0.42000000,-0.18002594,27.20002594,1.08704511
'0:28.875',1.10997040,-0.42000000,-0.19002991,27.20002594,1.08704511
'0:29.000',1.10997040,-0.42000000,-0.18002594,27.00002289,1.08704511
'0:29.125',1.10997040,-0.42000000,-0.18002594,27.20002594,1.08704511
'0:29.250',1.10997040,-0.42000000,-0.18002594,27.20002594,1.08704511
'0:29.375',1.10997040,-0.43004730,-0.18002594,27.20002594,1.08704511
'0:29.500',1.10997040,-0.42000000,-0.18002594,27.20002594,1.08704511
'0:29.625',1.10997040,-0.42000000,-0.19002991,27.20002594,1.08704511
'0:29.750',1.10997040,-0.42000000,-0.18002594,27.20002594,1.08704511
'0:29.875',1.10997040,-0.42000000,-0.19002991,27.20002594,1.08704511
'0:30.000',1.10997040,-0.42000000,-0.18002594,27.20002594,1.08704511
'0:30.125',1.10997040,-0.42000000,-0.19002991,27.20002594,1.08404917
'0:30.250',1.10997040,-0.42000000,-0.18002594,27.20002594,1.08704511
'0:30.375',1.10997040,-0.42000000,-0.19002991,27.20002594,1.08704511
'0:30.500',1.10997040,-0.42000000,-0.18002594,27.20002594,1.08704511
'0:30.625',1.10997040,-0.42000000,-0.18002594,27.20002594,1.08404917
'0:30.750',1.10997040,-0.42000000,-0.18002594,27.20002594,1.07800378
'0:30.875',1.10997040,-0.43004730,-0.19002991,27.20002594,1.07800378
'0:31.000',1.10997040,-0.42000000,-0.18002594,27.20002594,1.07800378
'0:31.125',1.10997040,-0.43004730,-0.19002991,27.20002594,1.07800378
'0:31.250',1.10997040,-0.42000000,-0.18002594,27.20002594,1.07800378
'0:31.375',1.10997040,-0.42000000,-0.19002991,27.20002594,1.07800378
'0:31.500',1.10997040,-0.42000000,-0.18002594,27.20002594,1.07800378
'0:31.625',1.10997040,-0.42000000,-0.18002594,27.20002594,1.07800378
'0:31.750',1.10997040,-0.42000000,-0.19002991,27.20002594,1.07800378
'0:31.875',1.10997040,-0.42000000,-0.18002594,27.20002594,1.07500784
'0:32.000',1.10997040,-0.42000000,-0.19002991,27.20002594,1.07500784
'0:32.125',1.10997040,-0.43004730,-0.19002991,27.20002594,1.07800378
'0:32.250',1.10997040,-0.42000000,-0.19002991,27.20002594,1.07500784
'0:32.375',1.10997040,-0.43004730,-0.18002594,27.40002899,1.06805298
'0:32.500',1.10997040,-0.42000000,-0.19002991,27.20002594,1.07500784
'0:32.625',1.10997040,-0.42000000,-0.19002991,27.20002594,1.07800378
'0:32.750',1.10997040,-0.42000000,-0.18002594,27.20002594,1.07800378
'0:32.875',1.10997040,-0.42000000,-0.19002991,27.40002899,1.07500784
'0:33.000',1.10997040,-0.42000000,-0.19002991,27.20002594,1.07104892
'0:33.125',1.10997040,-0.42000000,-0.18002594,27.40002899,1.07800378
'0:33.250',1.10997040,-0.42000000,-0.19002991,27.40002899,1.07500784
'0:33.375',1.11996094,-0.42000000,-0.19002991,27.20002594,1.07500784
'0:33.500',1.10997040,-0.42000000,-0.18002594,27.40002899,1.07800378
'0:33.625',1.10997040,-0.42000000,-0.18002594,27.20002594,1.07500784
'0:33.750',1.10997040,-0.42000000,-0.19002991,27.40002899,1.07500784
'0:33.875',1.10997040,-0.42000000,-0.19002991,27.40002899,1.07500784
'0:34.000',1.10997040,-0.42000000,-0.19002991,27.20002594,1.06805298
'0:34.125',1.10997040,-0.42000000,-0.18002594,27.20002594,1.06805298
'0:34.250',1.10997040,-0.42000000,-0.19002991,27.40002899,1.06805298
'0:34.375',1.10997040,-0.42000000,-0.18002594,27.20002594,1.06805298
'0:34.500',1.10997040,-0.42000000,-0.18002594,27.40002899,1.06805298
'0:34.625',1.10997040,-0.42000000,-0.19002991,27.40002899,1.07500784
'0:34.750',1.10997040,-0.42000000,-0.19002991,27.40002899,1.06500354
'0:34.875',1.10997040,-0.42000000,-0.19002991,27.40002899,1.06500354
'0:35.000',1.10997040,-0.42000000,-0.19002991,27.40002899,1.06500354
'0:35.125',1.10997040,-0.42000000,-0.18002594,27.40002899,1.06500354
'0:35.250',1.10997040,-0.42000000,-0.19002991,27.40002899,1.06500354
'0:35.375',1.10997040,-0.42000000,-0.19002991,27.40002899,1.05901166
'0:35.500',1.10997040,-0.42000000,-0.19002991,27.40002899,1.05901166
'0:35.625',1.10997040,-0.42000000,-0.18002594,27.40002899,1.05901166
'0:35.750',1.10997040,-0.42000000,-0.19002991,27.20002594,1.05901166
'0:35.875',1.10997040,-0.42000000,-0.19002991,27.40002899,1.05901166
'0:36.000',1.11996094,-0.43004730,-0.19002991,27.40002899,1.05505274
'0:36.125',1.10997040,-0.42000000,-0.18002594,27.40002899,1.05505274
'0:36.250',1.10997040,-0.42000000,-0.19002991,27.40002899,1.05505274
'0:36.375',1.10997040,-0.42000000,-0.18002594,27.40002899,1.05505274
'0:36.500',1.10997040,-0.42000000,-0.19002991,27.40002899,1.05505274
'0:36.625',1.10997040,-0.42000000,-0.19002991,27.40002899,1.05505274
'0:36.750',1.09997986,-0.43004730,-0.18002594,27.40002899,1.05505274
'0:36.875',1.09997986,-0.42000000,-0.19002991,27.40002899,1.05505274
'0:37.000',1.10997040,-0.42000000,-0.18002594,27.40002899,1.04900735
'0:37.125',1.10997040,-0.42000000,-0.19002991,27.40002899,1.05505274
'0:37.250',1.10997040,-0.42000000,-0.18002594,27.40002899,1.05505274
'0:37.375',1.10997040,-0.42000000,-0.19002991,27.40002899,1.05505274
'0:37.500',1.11996094,-0.41000946,-0.18002594,27.40002899,1.05505274
'0:37.625',1.10997040,-0.42000000,-0.19002991,27.40002899,1.04900735
'0:37.750',1.10997040,-0.42000000,-0.19002991,27.40002899,1.04900735
'0:37.875',1.11996094,-0.42000000,-0.19002991,27.40002899,1.04900735
'0:38.000',1.10997040,-0.42000000,-0.18002594,27.40002899,1.04900735
'0:38.125',1.10997040,-0.42000000,-0.19002991,27.40002899,1.04900735
'0:38.250',1.10997040,-0.41000946,-0.19002991,27.40002899,1.04900735
'0:38.375',1.10997040,-0.42000000,-0.19002991,27.40002899,1.04900735
'0:38.500',1.10997040,-0.42000000,-0.18002594,27.40002899,1.04900735
'0:38.625',1.10997040,-0.42000000,-0.18002594,27.40002899,1.04900735
'0:38.750',1.10997040,-0.43004730,-0.19002991,27.40002899,1.04900735
'0:38.875',1.10997040,-0.42000000,-0.19002991,27.40002899,1.04900735
'0:39.000',1.10997040,-0.43004730,-0.18002594,27.40002899,1.04900735
'0:39.125',1.10997040,-0.42000000,-0.19002991,27.40002899,1.04601141
'0:39.250',1.10997040,-0.42000000,-0.19002991,27.40002899,1.04301547
'0:39.375',1.10997040,-0.42000000,-0.18002594,27.40002899,1.04001953
'0:39.500',1.10997040,-0.42000000,-0.19002991,27.40002899,1.04601141
'0:39.625',1.10997040,-0.42000000,-0.19002991,27.40002899,1.04001953
'0:39.750',1.10997040,-0.42000000,-0.18002594,27.40002899,1.04001953
'0:39.875',1.09997986,-0.42000000,-0.19002991,27.40002899,1.04001953
'0:40.000',1.10997040,-0.43004730,-0.18002594,27.40002899,1.04001953
'0:40.125',1.10997040,-0.42000000,-0.18002594,27.40002899,1.04001953
'0:40.250',1.10997040,-0.42000000,-0.19002991,27.40002899,1.04001953
'0:40.375',1.10997040,-0.42000000,-0.18002594,27.40002899,1.04001953
'0:40.500',1.10997040,-0.42000000,-0.19002991,27.40002899,1.04001953
'0:40.625',1.10997040,-0.43004730,-0.19002991,27.40002899,1.04001953
'0:40.750',1.10997040,-0.43004730,-0.18002594,27.40002899,1.03702359
'0:40.875',1.10997040,-0.42000000,-0.19002991,27.40002899,1.03702359
'0:41.000',1.11996094,-0.42000000,-0.18002594,27.40002899,1.03702359
'0:41.125',1.10997040,-0.42000000,-0.19002991,27.40002899,1.03702359
'0:41.250',1.10997040,-0.42000000,-0.18002594,27.40002899,1.03702359
'0:41.375',1.11996094,-0.42000000,-0.19002991,27.40002899,1.03702359
'0:41.500',1.10997040,-0.42000000,-0.19002991,27.40002899,1.03702359
'0:41.625',1.10997040,-0.42000000,-0.18002594,27.40002899,1.03001523
'0:41.750',1.10997040,-0.42000000,-0.18002594,27.40002899,1.03702359
'0:41.875',1.09997986,-0.42000000,-0.19002991,27.40002899,1.03001523
'0:42.000',1.10997040,-0.43004730,-0.18002594,27.60003204,1.03001523
'0:42.125',1.10997040,-0.42000000,-0.19002991,27.40002899,1.03702359
'0:42.250',1.09997986,-0.42000000,-0.18002594,27.40002899,1.03001523
'0:42.375',1.10997040,-0.43004730,-0.18002594,27.60003204,1.03001523
'0:42.500',1.10997040,-0.42000000,-0.19002991,27.60003204,1.03702359
'0:42.625',1.10997040,-0.42000000,-0.18002594,27.60003204,1.03702359
'0:42.750',1.09997986,-0.42000000,-0.18002594,27.40002899,1.03001523
'0:42.875',1.10997040,-0.42000000,-0.19002991,27.60003204,1.03702359
'0:43.000',1.10997040,-0.42000000,-0.18002594,27.60003204,1.03001523
'0:43.125',1.10997040,-0.42000000,-0.18002594,27.60003204,1.03001523
'0:43.250',1.10997040,-0.42000000,-0.19002991,27.60003204,1.03001523
'0:43.375',1.10997040,-0.42000000,-0.19002991,27.60003204,1.03001523
'0:43.500',1.10997040,-0.42000000,-0.18002594,27.60003204,1.02701929
'0:43.625',1.10997040,-0.42000000,-0.19002991,27.60003204,1.02701929
'0:43.750',1.10997040,-0.42000000,-0.19002991,27.60003204,1.02701929
'0:43.875',1.10997040,-0.42000000,-0.19002991,27.60003204,1.02701929
'0:44.000',1.10997040,-0.42000000,-0.18002594,27.40002899,1.02701929
'0:44.125',1.10997040,-0.42000000,-0.19002991,27.60003204,1.02701929
'0:44.250',1.11996094,-0.42000000,-0.18002594,27.60003204,1.02701929
'0:44.375',1.10997040,-0.42000000,-0.19002991,27.60003204,1.02001093
'0:44.500',1.09997986,-0.42000000,-0.19002991,27.60003204,1.02701929
'0:44.625',1.10997040,-0.42000000,-0.19002991,27.60003204,1.02701929
'0:44.750',1.10997040,-0.42000000,-0.18002594,27.60003204,1.02001093
'0:44.875',1.10997040,-0.42000000,-0.18002594,27.60003204,1.02701929
'0:45.000',1.10997040,-0.43004730,-0.18002594,27.60003204,1.02001093
'0:45.125',1.10997040,-0.42000000,-0.19002991,27.60003204,1.02001093
'0:45.250',1.09997986,-0.42000000,-0.19002991,27.60003204,1.02001093
'0:45.375',1.10997040,-0.43004730,-0.19002991,27.60003204,1.02001093
'0:45.500',1.10997040,-0.43004730,-0.18002594,27.60003204,1.02001093
'0:45.625',1.10997040,-0.43004730,-0.19002991,27.60003204,1.02001093
'0:45.750',1.09997986,-0.43004730,-0.19002991,27.60003204,1.02001093
'0:45.875',1.10997040,-0.42000000,-0.19002991,27.60003204,1.02001093
'0:46.000',1.10997040,-0.42000000,-0.18002594,27.60003204,1.02001093
'0:46.125',1.10997040,-0.42000000,-0.18002594,27.60003204,1.02001093
'0:46.250',1.10997040,-0.42000000,-0.18002594,27.60003204,1.02001093
'0:46.375',1.10997040,-0.42000000,-0.18002594,27.60003204,1.02001093
'0:46.500',1.10997040,-0.42000000,-0.18002594,27.60003204,1.02001093
'0:46.625',1.10997040,-0.42000000,-0.18002594,27.60003204,1.02001093
'0:46.750',1.10997040,-0.42000000,-0.18002594,27.60003204,1.02001093
'0:46.875',1.10997040,-0.42000000,-0.19002991,27.60003204,1.02001093
'0:47.000',1.10997040,-0.42000000,-0.18002594,27.60003204,1.02001093
'0:47.125',1.11996094,-0.42000000,-0.18002594,27.60003204,1.02001093
'0:47.250',1.10997040,-0.43004730,-0.18002594,27.60003204,1.02001093
'0:47.375',1.10997040,-0.42000000,-0.18002594,27.60003204,1.02001093
'0:47.500',1.10997040,-0.43004730,-0.19002991,27.60003204,1.02001093
'0:47.625',1.10997040,-0.43004730,-0.19002991,27.60003204,1.02001093
'0:47.750',1.10997040,-0.42000000,-0.19002991,27.60003204,1.02001093
'0:47.875',1.10997040,-0.43004730,-0.18002594,27.60003204,1.01401904
'0:48.000',1.10997040,-0.42000000,-0.18002594,27.60003204,1.01203958
'0:48.125',1.10997040,-0.42000000,-0.19002991,27.60003204,1.01203958
'0:48.250',1.09997986,-0.43004730,-0.19002991,27.60003204,1.01203958
'0:48.375',1.10997040,-0.42000000,-0.18002594,27.60003204,1.01203958
'0:48.500',1.09997986,-0.43004730,-0.19002991,27.60003204,1.01203958
'0:48.625',1.09997986,-0.43004730,-0.19002991,27.60003204,1.01203958
'0:48.750',1.10997040,-0.42000000,-0.19002991,27.90003662,1.01203958
'0:48.875',1.10997040,-0.42000000,-0.18002594,27.60003204,1.01203958
'0:49.000',1.10997040,-0.42000000,-0.19002991,27.60003204,1.01203958
'0:49.125',1.10997040,-0.43004730,-0.19002991,27.60003204,1.01203958
'0:49.250',1.10997040,-0.42000000,-0.18002594,27.60003204,1.00802716
'0:49.375',1.10997040,-0.43004730,-0.19002991,27.60003204,1.00802716
'0:49.500',1.10997040,-0.42000000,-0.18002594,27.60003204,1.00203528
'0:49.625',1.10997040,-0.42000000,-0.19002991,27.60003204,1.00203528
'0:49.750',1.10997040,-0.42000000,-0.18002594,27.60003204,1.00802716
'0:49.875',1.10997040,-0.42000000,-0.19002991,27.60003204,1.00203528
'0:50.000',1.10997040,-0.42000000,-0.18002594,27.60003204,1.00203528
'0:50.125',1.09997986,-0.42000000,-0.19002991,27.60003204,1.00203528
'0:50.250',1.10997040,-0.42000000,-0.19002991,27.60003204,1.00203528
'0:50.375',1.10997040,-0.42000000,-0.19002991,27.60003204,1.00203528
'0:50.500',1.09997986,-0.43004730,-0.18002594,27.60003204,1.00203528
'0:50.625',1.10997040,-0.42000000,-0.19002991,27.60003204,1.00203528
'0:50.750',1.10997040,-0.43004730,-0.18002594,27.60003204,1.00203528
'0:50.875',1.09997986,-0.42000000,-0.18002594,27.60003204,1.00203528
'0:51.000',1.10997040,-0.42000000,-0.19002991,27.60003204,1.00203528
'0:51.125',1.09997986,-0.43004730,-0.19002991,27.60003204,1.00203528
'0:51.250',1.10997040,-0.43004730,-0.18002594,27.90003662,1.00000232
'0:51.375',1.10997040,-0.43004730,-0.19002991,27.90003662,1.00000232
'0:51.500',1.10997040,-0.43004730,-0.19002991,27.60003204,0.99304746
'0:51.625',1.10997040,-0.43004730,-0.19002991,27.90003662,0.99304746
'0:51.750',1.09997986,-0.42000000,-0.19002991,27.60003204,0.99304746
'0:51.875',1.10997040,-0.42000000,-0.19002991,27.60003204,1.00000232
'0:52.000',1.10997040,-0.42000000,-0.19002991,27.90003662,0.99304746
'0:52.125',1.10997040,-0.42000000,-0.18002594,27.60003204,0.99304746
'0:52.250',1.09997986,-0.43004730,-0.19002991,27.60003204,0.99304746
'0:52.375',1.10997040,-0.43004730,-0.19002991,27.90003662,0.99304746
'0:52.500',1.10997040,-0.42000000,-0.19002991,27.90003662,0.99304746
'0:52.625',1.10997040,-0.42000000,-0.19002991,28.10003967,0.99604340
'0:52.750',1.11996094,-0.42000000,-0.17002197,27.90003662,0.99005152
'0:52.875',1.10997040,-0.42000000,-0.18002594,27.90003662,0.99005152
'0:53.000',1.10997040,-0.42000000,-0.19002991,27.60003204,0.99604340
'0:53.125',1.10997040,-0.42000000,-0.19002991,27.90003662,0.99304746
'0:53.250',1.10997040,-0.42000000,-0.18002594,27.60003204,0.99304746
'0:53.375',1.10997040,-0.42000000,-0.18002594,27.60003204,0.99304746
'0:53.500',1.10997040,-0.42000000,-0.18002594,27.90003662,0.99005152
'0:53.625',1.10997040,-0.42000000,-0.19002991,27.90003662,0.99304746
'0:53.750',1.10997040,-0.43004730,-0.19002991,27.90003662,0.98700208
'0:53.875',1.10997040,-0.42000000,-0.19002991,27.90003662,0.98400613
'0:54.000',1.10997040,-0.43004730,-0.19002991,27.90003662,0.99005152
'0:54.125',1.10997040,-0.43004730,-0.19002991,27.90003662,0.98400613
'0:54.250',1.10997040,-0.42000000,-0.18002594,27.90003662,0.98700208
'0:54.375',1.10997040,-0.43004730,-0.18002594,27.90003662,0.98400613
'0:54.500',1.10997040,-0.43004730,-0.19002991,27.90003662,0.98400613
'0:54.625',1.10997040,-0.42000000,-0.19002991,27.90003662,0.98400613
'0:54.750',1.11996094,-0.42000000,-0.18002594,27.90003662,0.98400613
'0:54.875',1.09997986,-0.42000000,-0.19002991,27.90003662,0.98400613
'0:55.000',1.09997986,-0.43004730,-0.18002594,27.90003662,0.98400613
'0:55.125',1.10997040,-0.43004730,-0.19002991,27.90003662,0.98400613
'0:55.250',1.09997986,-0.43004730,-0.18002594,27.90003662,0.98400613
'0:55.375',1.10997040,-0.42000000,-0.18002594,27.90003662,0.98400613
'0:55.500',1.10997040,-0.42000000,-0.19002991,27.90003662,0.98400613
'0:55.625',1.10997040,-0.42000000,-0.19002991,27.90003662,0.98400613
'0:55.750',1.09997986,-0.42000000,-0.19002991,27.90003662,0.98400613
'0:55.875',1.10997040,-0.43004730,-0.19002991,27.90003662,0.98400613
'0:56.000',1.09997986,-0.42000000,-0.19002991,27.90003662,0.98400613
'0:56.125',1.09997986,-0.42000000,-0.18002594,27.90003662,0.97501831
'0:56.250',1.10997040,-0.42000000,-0.19002991,27.90003662,0.97801425
'0:56.375',1.10997040,-0.43004730,-0.19002991,27.90003662,0.97501831
'0:56.500',1.10997040,-0.42000000,-0.19002991,27.90003662,0.97501831
'0:56.625',1.10997040,-0.42000000,-0.19002991,27.90003662,0.97501831
'0:56.750',1.10997040,-0.42000000,-0.19002991,27.90003662,0.97501831
'0:56.875',1.10997040,-0.42000000,-0.19002991,27.90003662,0.97501831
'0:57.000',1.10997040,-0.42000000,-0.18002594,27.90003662,0.97501831
'0:57.125',1.10997040,-0.42000000,-0.19002991,27.90003662,0.97501831
'0:57.250',1.10997040,-0.43004730,-0.18002594,27.90003662,0.97501831
'0:57.375',1.10997040,-0.42000000,-0.18002594,27.90003662,0.97501831
'0:57.500',1.10997040,-0.42000000,-0.18002594,27.90003662,0.97202237
'0:57.625',1.10997040,-0.42000000,-0.19002991,27.90003662,0.97202237
'0:57.750',1.10997040,-0.42000000,-0.19002991,27.90003662,0.96603049
'0:57.875',1.10997040,-0.42000000,-0.18002594,27.90003662,0.97202237
'0:58.000',1.10997040,-0.42000000,-0.19002991,27.90003662,0.96603049
'0:58.125',1.10997040,-0.42000000,-0.18002594,27.90003662,0.96603049
'0:58.250',1.11996094,-0.42000000,-0.18002594,27.90003662,0.96603049
'0:58.375',1.10997040,-0.42000000,-0.18002594,27.90003662,0.96603049
'0:58.500',1.10997040,-0.42000000,-0.18002594,27.90003662,0.96603049
'0:58.625',1.10997040,-0.43004730,-0.18002594,27.90003662,0.96603049
'0:58.750',1.10997040,-0.42000000,-0.18002594,27.90003662,0.96603049
'0:58.875',1.09997986,-0.43004730,-0.18002594,27.90003662,0.96603049
'0:59.000',1.10997040,-0.42000000,-0.18002594,27.90003662,0.96303455
'0:59.125',1.10997040,-0.42000000,-0.19002991,27.90003662,0.96303455
'0:59.250',1.10997040,-0.42000000,-0.18002594,27.90003662,0.96303455
'0:59.375',1.10997040,-0.43004730,-0.19002991,27.90003662,0.96303455
'0:59.500',1.10997040,-0.42000000,-0.18002594,27.90003662,0.96303455
'0:59.625',1.10997040,-0.42000000,-0.19002991,27.90003662,0.95704266
'0:59.750',1.10997040,-0.43004730,-0.19002991,27.90003662,0.95704266
'0:59.875',1.10997040,-0.42000000,-0.19002991,27.90003662,0.95704266
'1:00.000',1.10997040,-0.42000000,-0.18002594,27.90003662,0.95704266
'1:00.125',1.09997986,-0.43004730,-0.19002991,27.90003662,0.95704266
'1:00.250',1.10997040,-0.42000000,-0.18002594,27.90003662,0.95704266
'1:00.375',1.10997040,-0.43004730,-0.19002991,27.90003662,0.95704266
'1:00.500',1.09997986,-0.42000000,-0.18002594,27.90003662,0.95704266
'1:00.625',1.10997040,-0.42000000,-0.19002991,27.90003662,0.95704266
'1:00.750',1.10997040,-0.42000000,-0.18002594,27.90003662,0.95704266
'1:00.875',1.10997040,-0.43004730,-0.19002991,27.90003662,0.95704266
'1:01.000',1.10997040,-0.42000000,-0.19002991,27.90003662,0.95704266
'1:01.125',1.10997040,-0.42000000,-0.19002991,27.90003662,0.95704266
'1:01.250',1.09997986,-0.43004730,-0.19002991,27.90003662,0.95704266
'1:01.375',1.10997040,-0.42000000,-0.19002991,27.90003662,0.95704266
'1:01.500',1.09997986,-0.43004730,-0.19002991,27.90003662,0.95704266
'1:01.625',1.10997040,-0.42000000,-0.19002991,27.90003662,0.95201376
'1:01.750',1.10997040,-0.42000000,-0.19002991,28.10003967,0.95704266
'1:01.875',1.10997040,-0.42000000,-0.18002594,27.90003662,0.95201376
'1:02.000',1.10997040,-0.42000000,-0.18002594,28.10003967,0.95404672
'1:02.125',1.10997040,-0.42000000,-0.19002991,28.10003967,0.94901782
'1:02.250',1.10997040,-0.42000000,-0.19002991,28.10003967,0.94901782
'1:02.375',1.10997040,-0.42000000,-0.18002594,27.90003662,0.94901782
'1:02.500',1.10997040,-0.42000000,-0.19002991,27.90003662,0.94901782
'1:02.625',1.09997986,-0.42000000,-0.18002594,27.90003662,0.94901782
'1:02.750',1.10997040,-0.42000000,-0.19002991,28.10003967,0.94901782
'1:02.875',1.09997986,-0.42000000,-0.18002594,27.90003662,0.94901782
'1:03.000',1.10997040,-0.42000000,-0.18002594,28.10003967,0.94901782
'1:03.125',1.09997986,-0.42000000,-0.18002594,27.90003662,0.94901782
'1:03.250',1.10997040,-0.42000000,-0.19002991,28.10003967,0.94901782
'1:03.375',1.09997986,-0.42000000,-0.19002991,28.10003967,0.94901782
'1:03.500',1.10997040,-0.42000000,-0.19002991,28.10003967,0.94901782
'1:03.625',1.10997040,-0.42000000,-0.18002594,28.10003967,0.94901782
'1:03.750',1.10997040,-0.42000000,-0.19002991,28.10003967,0.94901782
'1:03.875',1.10997040,-0.42000000,-0.18002594,28.10003967,0.94901782
'1:04.000',1.09997986,-0.42000000,-0.19002991,28.10003967,0.94901782
'1:04.125',1.10997040,-0.42000000,-0.18002594,28.10003967,0.94901782
'1:04.250',1.10997040,-0.42000000,-0.18002594,28.10003967,0.94901782
'1:04.375',1.10997040,-0.42000000,-0.19002991,28.10003967,0.94901782
'1:04.500',1.10997040,-0.42000000,-0.18002594,28.10003967,0.94901782
'1:04.625',1.10997040,-0.42000000,-0.18002594,28.10003967,0.94901782
'1:04.750',1.10997040,-0.42000000,-0.18002594,28.10003967,0.94602188
'1:04.875',1.10997040,-0.42000000,-0.18002594,28.10003967,0.94602188
'1:05.000',1.10997040,-0.42000000,-0.18002594,28.10003967,0.94003000
'1:05.125',1.09997986,-0.42000000,-0.19002991,28.10003967,0.94003000
'1:05.250',1.10997040,-0.42000000,-0.19002991,28.10003967,0.94602188
'1:05.375',1.10997040,-0.43004730,-0.18002594,28.10003967,0.94003000
'1:05.500',1.09997986,-0.42000000,-0.19002991,28.10003967,0.94003000
'1:05.625',1.09997986,-0.42000000,-0.19002991,28.10003967,0.94602188
'1:05.750',1.10997040,-0.42000000,-0.19002991,28.10003967,0.94003000
'1:05.875',1.10997040,-0.42000000,-0.18002594,28.10003967,0.94003000
'1:06.000',1.09997986,-0.42000000,-0.19002991,28.10003967,0.94003000
'1:06.125',1.10997040,-0.42000000,-0.19002991,28.10003967,0.94003000
'1:06.250',1.10997040,-0.43004730,-0.18002594,28.10003967,0.94003000
'1:06.375',1.10997040,-0.42000000,-0.19002991,28.10003967,0.93703406
'1:06.500',1.10997040,-0.42000000,-0.19002991,28.10003967,0.93703406
'1:06.625',1.10997040,-0.42000000,-0.18002594,28.10003967,0.93703406
'1:06.750',1.09997986,-0.42000000,-0.19002991,28.10003967,0.93104218
'1:06.875',1.10997040,-0.42000000,-0.19002991,28.10003967,0.93104218
'1:07.000',1.09997986,-0.42000000,-0.19002991,28.10003967,0.93104218
'1:07.125',1.10997040,-0.42000000,-0.19002991,28.10003967,0.93104218
'1:07.250',1.10997040,-0.42000000,-0.19002991,28.10003967,0.93104218
'1:07.375',1.10997040,-0.42000000,-0.19002991,28.10003967,0.93104218
'1:07.500',1.10997040,-0.43004730,-0.19002991,28.10003967,0.93104218
'1:07.625',1.09997986,-0.42000000,-0.19002991,28.10003967,0.93104218
'1:07.750',1.10997040,-0.43004730,-0.18002594,28.10003967,0.93104218
'1:07.875',1.10997040,-0.42000000,-0.19002991,28.10003967,0.93104218
'1:08.000',1.10997040,-0.42000000,-0.19002991,28.10003967,0.93104218
'1:08.125',1.09997986,-0.42000000,-0.19002991,28.10003967,0.93104218
'1:08.250',1.09997986,-0.43004730,-0.19002991,28.10003967,0.93104218
'1:08.375',1.09997986,-0.43004730,-0.19002991,28.10003967,0.93104218
'1:08.500',1.09997986,-0.43004730,-0.19002991,28.10003967,0.93104218
'1:08.625',1.09997986,-0.42000000,-0.19002991,28.10003967,0.93104218
'1:08.750',1.10997040,-0.42000000,-0.19002991,28.10003967,0.93104218
'1:08.875',1.10997040,-0.42000000,-0.18002594,28.10003967,0.92505029
'1:09.000',1.10997040,-0.42000000,-0.19002991,28.10003967,0.92505029
'1:09.125',1.10997040,-0.42000000,-0.19002991,28.10003967,0.92505029
'1:09.250',1.10997040,-0.43004730,-0.18002594,28.10003967,0.92200085
'1:09.375',1.09997986,-0.42000000,-0.18002594,28.10003967,0.92200085
'1:09.500',1.10997040,-0.42000000,-0.19002991,28.10003967,0.92200085
'1:09.625',1.10997040,-0.42000000,-0.19002991,28.10003967,0.92200085
'1:09.750',1.10997040,-0.42000000,-0.18002594,28.10003967,0.92200085
'1:09.875',1.10997040,-0.42000000,-0.19002991,28.10003967,0.92200085
'1:10.000',1.09997986,-0.42000000,-0.19002991,28.10003967,0.92200085
'1:10.125',1.10997040,-0.42000000,-0.19002991,28.10003967,0.91900491
'1:10.250',1.10997040,-0.42000000,-0.19002991,28.10003967,0.91900491
'1:10.375',1.10997040,-0.42000000,-0.19002991,28.10003967,0.91702545
'1:10.500',1.09997986,-0.42000000,-0.18002594,28.10003967,0.91402951
'1:10.625',1.10997040,-0.43004730,-0.19002991,28.10003967,0.91402951
'1:10.750',1.10997040,-0.42000000,-0.19002991,28.10003967,0.91900491
'1:10.875',1.09997986,-0.42000000,-0.19002991,28.10003967,0.91900491
'1:11.000',1.10997040,-0.42000000,-0.18002594,28.10003967,0.91402951
'1:11.125',1.10997040,-0.42000000,-0.19002991,28.30004273,0.91402951
'1:11.250',1.10997040,-0.42000000,-0.18002594,28.10003967,0.91402951
'1:11.375',1.10997040,-0.42000000,-0.19002991,28.10003967,0.91103357
'1:11.500',1.09997986,-0.42000000,-0.18002594,28.10003967,0.91103357
'1:11.625',1.09997986,-0.42000000,-0.18002594,28.10003967,0.91103357
'1:11.750',1.10997040,-0.42000000,-0.18002594,28.10003967,0.91103357
'1:11.875',1.09997986,-0.42000000,-0.19002991,28.10003967,0.91103357
'1:12.000',1.10997040,-0.42000000,-0.19002991,28.10003967,0.91103357
'1:12.125',1.10997040,-0.43004730,-0.19002991,28.10003967,0.91103357
'1:12.250',1.10997040,-0.43004730,-0.19002991,28.30004273,0.90504169
'1:12.375',1.10997040,-0.42000000,-0.19002991,28.10003967,0.90504169
'1:12.500',1.09997986,-0.42000000,-0.18002594,28.30004273,0.90504169
'1:12.625',1.10997040,-0.42000000,-0.18002594,28.30004273,0.90504169
'1:12.750',1.09997986,-0.42000000,-0.19002991,28.30004273,0.90504169
'1:12.875',1.10997040,-0.42000000,-0.19002991,28.10003967,0.90504169
'1:13.000',1.10997040,-0.42000000,-0.19002991,28.10003967,0.90504169
'1:13.125',1.10997040,-0.42000000,-0.19002991,28.30004273,0.90504169
'1:13.250',1.10997040,-0.42000000,-0.19002991,28.10003967,0.90001279
'1:13.375',1.10997040,-0.42000000,-0.18002594,28.10003967,0.90504169
'1:13.500',1.09997986,-0.42000000,-0.19002991,28.30004273,0.90001279
'1:13.625',1.10997040,-0.42000000,-0.18002594,28.30004273,0.90504169
'1:13.750',1.10997040,-0.42000000,-0.18002594,28.30004273,0.90504169
'1:13.875',1.10997040,-0.42000000,-0.19002991,28.30004273,0.90001279
'1:14.000',1.10997040,-0.42000000,-0.19002991,28.30004273,0.89701685
'1:14.125',1.10997040,-0.42000000,-0.18002594,28.30004273,0.90001279
'1:14.250',1.10997040,-0.42000000,-0.18002594,28.30004273,0.89701685
'1:14.375',1.10997040,-0.42000000,-0.19002991,28.30004273,0.89701685
'1:14.500',1.10997040,-0.42000000,-0.19002991,28.30004273,0.89701685
'1:14.625',1.10997040,-0.43004730,-0.18002594,28.30004273,0.89701685
'1:14.750',1.09997986,-0.42000000,-0.19002991,28.30004273,0.89701685
'1:14.875',1.10997040,-0.42000000,-0.18002594,28.30004273,0.89701685
'1:15.000',1.09997986,-0.42000000,-0.18002594,28.30004273,0.89701685
'1:15.125',1.09997986,-0.42000000,-0.19002991,28.30004273,0.89701685
'1:15.250',1.10997040,-0.42000000,-0.18002594,28.30004273,0.89402091
'1:15.375',1.10997040,-0.42000000,-0.18002594,28.30004273,0.88802902
'1:15.500',1.10997040,-0.42000000,-0.19002991,28.10003967,0.88802902
'1:15.625',1.09997986,-0.43004730,-0.18002594,28.30004273,0.88802902
'1:15.750',1.10997040,-0.42000000,-0.18002594,28.30004273,0.88802902
'1:15.875',1.10997040,-0.42000000,-0.19002991,28.30004273,0.88802902
'1:16.000',1.10997040,-0.42000000,-0.18002594,28.30004273,0.88802902
'1:16.125',1.10997040,-0.43004730,-0.19002991,28.30004273,0.88802902
'1:16.250',1.10997040,-0.42000000,-0.19002991,28.30004273,0.88503308
'1:16.375',1.10997040,-0.42000000,-0.18002594,28.30004273,0.88503308
'1:16.500',1.10997040,-0.42000000,-0.18002594,28.30004273,0.88503308
'1:16.625',1.09997986,-0.42000000,-0.18002594,28.30004273,0.88000418
'1:16.750',1.10997040,-0.42000000,-0.18002594,28.30004273,0.88000418
'1:16.875',1.10997040,-0.42000000,-0.19002991,28.30004273,0.88000418
'1:17.000',1.09997986,-0.42000000,-0.19002991,28.30004273,0.88000418
'1:17.125',1.10997040,-0.42000000,-0.19002991,28.30004273,0.88000418
'1:17.250',1.09997986,-0.42000000,-0.18002594,28.30004273,0.88000418
'1:17.375',1.10997040,-0.42000000,-0.19002991,28.30004273,0.87700824
'1:17.500',1.10997040,-0.42000000,-0.18002594,28.30004273,0.87700824
'1:17.625',1.10997040,-0.42000000,-0.18002594,28.30004273,0.87700824
'1:17.750',1.09997986,-0.42000000,-0.19002991,28.30004273,0.87700824
'1:17.875',1.10997040,-0.43004730,-0.19002991,28.30004273,0.87700824
'1:18.000',1.09997986,-0.42000000,-0.19002991,28.30004273,0.87101636
'1:18.125',1.10997040,-0.43004730,-0.18002594,28.30004273,0.87101636
'1:18.250',1.09997986,-0.42000000,-0.19002991,28.30004273,0.87101636
'1:18.375',1.09997986,-0.42000000,-0.18002594,28.30004273,0.87101636
'1:18.500',1.10997040,-0.42000000,-0.18002594,28.30004273,0.87101636
'1:18.625',1.10997040,-0.42000000,-0.19002991,28.30004273,0.87101636
'1:18.750',1.10997040,-0.43004730,-0.19002991,28.30004273,0.87101636
'1:18.875',1.10997040,-0.42000000,-0.18002594,28.30004273,0.87101636
'1:19.000',1.10997040,-0.42000000,-0.18002594,28.30004273,0.87101636
'1:19.125',1.09997986,-0.43004730,-0.18002594,28.30004273,0.87101636
'1:19.250',1.10997040,-0.42000000,-0.18002594,28.30004273,0.86802042
'1:19.375',1.10997040,-0.42000000,-0.18002594,28.30004273,0.87101636
'1:19.500',1.10997040,-0.42000000,-0.19002991,28.30004273,0.86802042
'1:19.625',1.10997040,-0.42000000,-0.18002594,28.30004273,0.86802042
'1:19.750',1.10997040,-0.42000000,-0.18002594,28.30004273,0.86304501
'1:19.875',1.10997040,-0.42000000,-0.19002991,28.30004273,0.86304501
'1:20.000',1.10997040,-0.42000000,-0.18002594,28.30004273,0.86304501
'1:20.125',1.10997040,-0.42000000,-0.18002594,28.30004273,0.86304501
'1:20.250',1.10997040,-0.42000000,-0.18002594,28.30004273,0.86304501
'1:20.375',1.10997040,-0.42000000,-0.18002594,28.30004273,0.86304501
'1:20.500',1.09997986,-0.42000000,-0.19002991,28.30004273,0.86304501
'1:20.625',1.09997986,-0.42000000,-0.19002991,28.30004273,0.86304501
'1:20.750',1.10997040,-0.43004730,-0.19002991,28.30004273,0.86304501
'1:20.875',1.09997986,-0.43004730,-0.18002594,28.30004273,0.86004907
'1:21.000',1.09997986,-0.43004730,-0.18002594,28.30004273,0.86004907
'1:21.125',1.09997986,-0.43004730,-0.18002594,28.30004273,0.85502017
'1:21.250',1.10997040,-0.42000000,-0.19002991,28.30004273,0.85502017
'1:21.375',1.10997040,-0.42000000,-0.18002594,28.30004273,0.85502017
'1:21.500',1.10997040,-0.42000000,-0.18002594,28.30004273,0.85502017
'1:21.625',1.10997040,-0.42000000,-0.19002991,28.30004273,0.85502017
'1:21.750',1.09997986,-0.42000000,-0.18002594,28.30004273,0.85502017
'1:21.875',1.10997040,-0.42000000,-0.19002991,28.30004273,0.85202423
'1:22.000',1.10997040,-0.42000000,-0.18002594,28.30004273,0.85202423
'1:22.125',1.10997040,-0.42000000,-0.19002991,28.30004273,0.85202423
'1:22.250',1.10997040,-0.42000000,-0.18002594,28.30004273,0.85202423
'1:22.375',1.10997040,-0.42000000,-0.18002594,28.30004273,0.85202423
'1:22.500',1.10997040,-0.42000000,-0.19002991,28.30004273,0.85202423
'1:22.625',1.10997040,-0.42000000,-0.19002991,28.30004273,0.85202423
'1:22.750',1.10997040,-0.42000000,-0.19002991,28.30004273,0.85202423
'1:22.875',1.10997040,-0.43004730,-0.19002991,28.30004273,0.85202423
'1:23.000',1.10997040,-0.43004730,-0.18002594,28.30004273,0.85202423
'1:23.125',1.10997040,-0.43004730,-0.19002991,28.30004273,0.85202423
'1:23.250',1.10997040,-0.42000000,-0.18002594,28.30004273,0.85202423
'1:23.375',1.09997986,-0.42000000,-0.18002594,28.30004273,0.84603235
'1:23.500',1.09997986,-0.42000000,-0.18002594,28.50004578,0.84603235
'1:23.625',1.10997040,-0.43004730,-0.19002991,28.30004273,0.84603235
'1:23.750',1.09997986,-0.43004730,-0.19002991,28.30004273,0.84603235
'1:23.875',1.10997040,-0.42000000,-0.19002991,28.30004273,0.84603235
'1:24.000',1.10997040,-0.42000000,-0.18002594,28.30004273,0.84603235
'1:24.125',1.10997040,-0.42000000,-0.18002594,28.50004578,0.84603235
'1:24.250',1.10997040,-0.43004730,-0.18002594,28.50004578,0.84603235
'1:24.375',1.09997986,-0.42000000,-0.18002594,28.50004578,0.84603235
'1:24.500',1.10997040,-0.42000000,-0.19002991,28.50004578,0.83800751
'1:24.625',1.10997040,-0.42000000,-0.18002594,28.50004578,0.84303641
'1:24.750',1.09997986,-0.43004730,-0.18002594,28.30004273,0.83800751
'1:24.875',1.10997040,-0.43004730,-0.18002594,28.30004273,0.83800751
'1:25.000',1.09997986,-0.42000000,-0.19002991,28.50004578,0.84100345
'1:25.125',1.10997040,-0.43004730,-0.19002991,28.50004578,0.83800751
'1:25.250',1.09997986,-0.42000000,-0.19002991,28.50004578,0.83800751
'1:25.375',1.10997040,-0.42000000,-0.19002991,28.50004578,0.83800751
'1:25.500',1.09997986,-0.43004730,-0.18002594,28.50004578,0.83800751
'1:25.625',1.09997986,-0.42000000,-0.18002594,28.50004578,0.83800751
'1:25.750',1.09997986,-0.42000000,-0.18002594,28.50004578,0.83501157
'1:25.875',1.09997986,-0.42000000,-0.18002594,28.50004578,0.83003616
'1:26.000',1.09997986,-0.42000000,-0.18002594,28.50004578,0.83003616
'1:26.125',1.09997986,-0.42000000,-0.18002594,28.50004578,0.83501157
'1:26.250',1.09997986,-0.42000000,-0.19002991,28.50004578,0.83003616
'1:26.375',1.09997986,-0.42000000,-0.19002991,28.50004578,0.83003616
'1:26.500',1.10997040,-0.42000000,-0.18002594,28.50004578,0.83003616
'1:26.625',1.10997040,-0.43004730,-0.18002594,28.50004578,0.83003616
'1:26.750',1.10997040,-0.43004730,-0.19002991,28.50004578,0.83003616
'1:26.875',1.10997040,-0.42000000,-0.18002594,28.50004578,0.83003616
'1:27.000',1.10997040,-0.42000000,-0.18002594,28.50004578,0.82704022
'1:27.125',1.09997986,-0.42000000,-0.18002594,28.50004578,0.82704022
'1:27.250',1.09997986,-0.42000000,-0.19002991,28.50004578,0.83003616
'1:27.375',1.09997986,-0.42000000,-0.18002594,28.50004578,0.82704022
'1:27.500',1.10997040,-0.43004730,-0.18002594,28.50004578,0.82704022
'1:27.625',1.10997040,-0.42000000,-0.18002594,28.50004578,0.82704022
'1:27.750',1.09997986,-0.43004730,-0.19002991,28.50004578,0.82201132
'1:27.875',1.09997986,-0.46001892,-0.19002991,28.50004578,0.82201132
'1:28.000',1.19999268,-0.41000946,-0.17002197,28.50004578,0.82201132
'1:28.125',1.13999573,-0.45002838,-0.16001801,28.50004578,0.82201132
'1:28.250',1.07999878,-0.43004730,-0.08003174,28.50004578,0.82201132
'1:28.375',0.99996704,-0.47000946,-0.07002777,28.50004578,0.82201132
'1:28.500',0.94996063,-0.55004730,0.00000000,28.50004578,0.82201132
'1:28.625',0.92997955,-0.78000000,-0.05001984,28.50004578,0.82201132
'1:28.750',0.99996704,-0.63002838,-0.03001190,28.50004578,0.82201132
'1:28.875',1.03998291,-0.53000946,-0.12000214,28.50004578,0.82201132
'1:29.000',1.03998291,-0.54000000,-0.06002380,28.50004578,0.82201132
'1:29.125',1.08998932,-0.50003784,-0.11004364,28.50004578,0.82201132
'1:29.250',1.11996094,-0.54000000,-0.10003967,28.50004578,0.82201132
'1:29.375',0.98997650,-0.64001892,-0.07002777,28.50004578,0.82201132
'1:29.500',0.94996063,-0.41000946,-0.01000397,28.50004578,0.82201132
'1:29.625',1.07999878,-0.58001892,-0.09003571,28.50004578,0.82201132
'1:29.750',1.11996094,-0.44003784,-0.11004364,28.50004578,0.82201132
'1:29.875',1.13999573,-0.45002838,-0.12000214,28.50004578,0.81703592
'1:30.000',1.12995148,-0.48000000,-0.17002197,28.50004578,0.81703592
'1:30.125',1.09997986,-0.52001892,-0.17002197,28.50004578,0.81403998
'1:30.250',1.07999878,-0.50003784,-0.19002991,28.50004578,0.81403998
'1:30.375',1.08998932,-0.50003784,-0.16001801,28.50004578,0.81403998
'1:30.500',1.05996399,-0.50003784,-0.16001801,28.50004578,0.81403998
'1:30.625',1.05996399,-0.50003784,-0.17002197,28.50004578,0.81403998
'1:30.750',1.06995453,-0.50003784,-0.17002197,28.50004578,0.81403998
'1:30.875',1.06995453,-0.50003784,-0.17002197,28.50004578,0.81403998
'1:31.000',1.06995453,-0.50003784,-0.16001801,28.50004578,0.81104404
'1:31.125',1.07999878,-0.50003784,-0.17002197,28.50004578,0.81403998
'1:31.250',1.06995453,-0.50003784,-0.17002197,28.50004578,0.81104404
'1:31.375',1.06995453,-0.50003784,-0.17002197,28.50004578,0.80601514
'1:31.500',1.06995453,-0.50003784,-0.16001801,28.50004578,0.81104404
'1:31.625',1.06995453,-0.50003784,-0.16001801,28.50004578,0.80601514
'1:31.750',1.06995453,-0.50003784,-0.17002197,28.50004578,0.80601514
'1:31.875',1.06995453,-0.50003784,-0.17002197,28.50004578,0.80601514
'1:32.000',1.06995453,-0.50003784,-0.17002197,28.50004578,0.80601514
'1:32.125',1.06995453,-0.50003784,-0.16001801,28.50004578,0.80301920
'1:32.250',1.06995453,-0.50003784,-0.17002197,28.50004578,0.80601514
'1:32.375',1.05996399,-0.50003784,-0.17002197,28.50004578,0.80301920
'1:32.500',1.06995453,-0.50003784,-0.17002197,28.50004578,0.80301920
'1:32.625',1.06995453,-0.50003784,-0.17002197,28.50004578,0.80301920
'1:32.750',1.06995453,-0.50003784,-0.17002197,28.50004578,0.79804379
'1:32.875',1.06995453,-0.50003784,-0.17002197,28.50004578,0.80301920
'1:33.000',1.06995453,-0.50003784,-0.17002197,28.50004578,0.79804379
'1:33.125',1.06995453,-0.50003784,-0.16001801,28.50004578,0.79804379
'1:33.250',1.06995453,-0.50003784,-0.17002197,28.50004578,0.79804379
'1:33.375',1.06995453,-0.50003784,-0.17002197,28.50004578,0.79504785
'1:33.500',1.06995453,-0.50003784,-0.17002197,28.50004578,0.79804379
'1:33.625',1.06995453,-0.50003784,-0.17002197,28.70004883,0.79504785
'1:33.750',1.06995453,-0.50003784,-0.17002197,28.50004578,0.79504785
'1:33.875',1.06995453,-0.50003784,-0.17002197,28.50004578,0.79504785
'1:34.000',1.06995453,-0.50003784,-0.17002197,28.50004578,0.79504785
'1:34.125',1.06995453,-0.50003784,-0.17002197,28.50004578,0.79504785
'1:34.250',1.06995453,-0.50003784,-0.17002197,28.50004578,0.79504785
'1:34.375',1.06995453,-0.50003784,-0.17002197,28.50004578,0.79504785
'1:34.500',1.06995453,-0.50003784,-0.17002197,28.50004578,0.79504785
'1:34.625',1.06995453,-0.50003784,-0.17002197,28.70004883,0.79504785
'1:34.750',1.06995453,-0.50003784,-0.17002197,28.70004883,0.79504785
'1:34.875',1.06995453,-0.50003784,-0.17002197,28.70004883,0.79001895
'1:35.000',1.06995453,-0.50003784,-0.18002594,28.50004578,0.79001895
'1:35.125',1.06995453,-0.50003784,-0.17002197,28.50004578,0.79001895
'1:35.250',1.06995453,-0.50003784,-0.17002197,28.50004578,0.79001895
'1:35.375',1.06995453,-0.50003784,-0.17002197,28.70004883,0.79001895
'1:35.500',1.06995453,-0.50003784,-0.17002197,28.70004883,0.79001895
'1:35.625',1.06995453,-0.50003784,-0.17002197,28.70004883,0.79001895
'1:35.750',1.06995453,-0.50003784,-0.17002197,28.70004883,0.79001895
'1:35.875',1.06995453,-0.50003784,-0.17002197,28.50004578,0.79001895
'1:36.000',1.05996399,-0.50003784,-0.17002197,28.70004883,0.79001895
'1:36.125',1.06995453,-0.50003784,-0.17002197,28.70004883,0.78702301
'1:36.250',1.05996399,-0.50003784,-0.17002197,28.50004578,0.79001895
'1:36.375',1.06995453,-0.50003784,-0.17002197,28.70004883,0.78702301
'1:36.500',1.06995453,-0.50003784,-0.17002197,28.70004883,0.78702301
'1:36.625',1.06995453,-0.50003784,-0.17002197,28.70004883,0.78204761
'1:36.750',1.07999878,-0.50003784,-0.17002197,28.70004883,0.78702301
'1:36.875',1.06995453,-0.50003784,-0.17002197,28.50004578,0.78204761
'1:37.000',1.06995453,-0.50003784,-0.17002197,28.70004883,0.78204761
'1:37.125',1.06995453,-0.50003784,-0.17002197,28.50004578,0.78204761
'1:37.250',1.06995453,-0.50003784,-0.17002197,28.70004883,0.78204761
'1:37.375',1.05996399,-0.50003784,-0.17002197,28.70004883,0.78204761
'1:37.500',1.05996399,-0.50003784,-0.17002197,28.50004578,0.78204761
'1:37.625',1.05996399,-0.50003784,-0.17002197,28.70004883,0.77905167
'1:37.750',1.06995453,-0.50003784,-0.17002197,28.70004883,0.77905167
'1:37.875',1.06995453,-0.50003784,-0.17002197,28.70004883,0.77905167
'1:38.000',1.06995453,-0.50003784,-0.17002197,28.50004578,0.77402277
'1:38.125',1.06995453,-0.50003784,-0.17002197,28.50004578,0.77905167
'1:38.250',1.06995453,-0.50003784,-0.17002197,28.50004578,0.77402277
'1:38.375',1.06995453,-0.50003784,-0.17002197,28.70004883,0.77402277
'1:38.500',1.05996399,-0.50003784,-0.17002197,28.70004883,0.77402277
'1:38.625',1.05996399,-0.50003784,-0.17002197,28.70004883,0.77402277
'1:38.750',1.06995453,-0.50003784,-0.17002197,28.70004883,0.77402277
'1:38.875',1.06995453,-0.50003784,-0.17002197,28.70004883,0.77102683
'1:39.000',1.06995453,-0.50003784,-0.17002197,28.70004883,0.77102683
'1:39.125',1.06995453,-0.50003784,-0.17002197,28.70004883,0.77102683
'1:39.250',1.06995453,-0.50003784,-0.17002197,28.70004883,0.77102683
'1:39.375',1.06995453,-0.50003784,-0.17002197,28.70004883,0.77102683
'1:39.500',1.06995453,-0.50003784,-0.17002197,28.70004883,0.77102683
'1:39.625',1.06995453,-0.50003784,-0.17002197,28.70004883,0.77102683
'1:39.750',1.06995453,-0.50003784,-0.17002197,28.70004883,0.76605142
'1:39.875',1.06995453,-0.50003784,-0.17002197,28.70004883,0.76605142
'1:40.000',1.07999878,-0.50003784,-0.17002197,28.70004883,0.76605142
'1:40.125',1.06995453,-0.50003784,-0.17002197,28.70004883,0.76605142
'1:40.250',1.06995453,-0.50003784,-0.17002197,28.70004883,0.76605142
'1:40.375',1.06995453,-0.50003784,-0.17002197,28.70004883,0.76605142
'1:40.500',1.06995453,-0.50003784,-0.17002197,28.70004883,0.76605142
'1:40.625',1.05996399,-0.50003784,-0.17002197,28.70004883,0.76605142
'1:40.750',1.06995453,-0.50003784,-0.17002197,28.70004883,0.76605142
'1:40.875',1.06995453,-0.50003784,-0.17002197,28.70004883,0.76605142
'1:41.000',1.06995453,-0.50003784,-0.17002197,28.70004883,0.76605142
'1:41.125',1.06995453,-0.50003784,-0.17002197,28.70004883,0.76102252
'1:41.250',1.06995453,-0.50003784,-0.17002197,28.70004883,0.76605142
'1:41.375',1.06995453,-0.50003784,-0.17002197,28.70004883,0.75904306
'1:41.500',1.06995453,-0.50003784,-0.17002197,28.70004883,0.76401846
'1:41.625',1.06995453,-0.50003784,-0.17002197,28.70004883,0.75904306
'1:41.750',1.06995453,-0.50003784,-0.17002197,28.70004883,0.75904306
'1:41.875',1.06995453,-0.50003784,-0.17002197,28.70004883,0.75904306
'1:42.000',1.06995453,-0.50003784,-0.17002197,28.70004883,0.75904306
'1:42.125',1.06995453,-0.50003784,-0.17002197,28.70004883,0.75904306
'1:42.250',1.07999878,-0.50003784,-0.17002197,28.70004883,0.75904306
'1:42.375',1.06995453,-0.50003784,-0.17002197,28.70004883,0.75904306
'1:42.500',1.06995453,-0.50003784,-0.17002197,28.70004883,0.75904306
'1:42.625',1.05996399,-0.50003784,-0.17002197,28.70004883,0.75604712
'1:42.750',1.06995453,-0.50003784,-0.17002197,28.70004883,0.75101822
'1:42.875',1.06995453,-0.50003784,-0.17002197,28.70004883,0.75101822
'1:43.000',1.06995453,-0.50003784,-0.17002197,28.70004883,0.75101822
'1:43.125',1.06995453,-0.50003784,-0.17002197,28.70004883,0.75604712
'1:43.250',1.06995453,-0.50003784,-0.17002197,28.70004883,0.75101822
'1:43.375',1.07999878,-0.50003784,-0.17002197,28.70004883,0.75101822
'1:43.500',1.06995453,-0.50003784,-0.17002197,28.70004883,0.75101822
'1:43.625',1.06995453,-0.50003784,-0.17002197,28.70004883,0.75101822
'1:43.750',1.06995453,-0.50003784,-0.17002197,28.70004883,0.75101822
'1:43.875',1.06995453,-0.50003784,-0.17002197,28.70004883,0.75101822
'1:44.000',1.06995453,-0.50003784,-0.17002197,28.70004883,0.74802228
'1:44.125',1.06995453,-0.50003784,-0.17002197,28.70004883,0.74304688
'1:44.250',1.06995453,-0.50003784,-0.17002197,28.70004883,0.74802228
'1:44.375',1.06995453,-0.50003784,-0.17002197,28.70004883,0.74802228
'1:44.500',1.07999878,-0.50003784,-0.17002197,28.70004883,0.74802228
'1:44.625',1.06995453,-0.50003784,-0.17002197,28.70004883,0.74304688
'1:44.750',1.05996399,-0.50003784,-0.17002197,28.70004883,0.74304688
'1:44.875',1.06995453,-0.50003784,-0.17002197,28.70004883,0.74304688
'1:45.000',1.06995453,-0.50003784,-0.17002197,28.70004883,0.74304688
'1:45.125',1.05996399,-0.50003784,-0.17002197,28.70004883,0.74304688
'1:45.250',1.06995453,-0.50003784,-0.17002197,28.70004883,0.74304688
'1:45.375',1.06995453,-0.50003784,-0.18002594,28.70004883,0.74304688
'1:45.500',1.06995453,-0.50003784,-0.17002197,28.90005188,0.74304688
'1:45.625',1.06995453,-0.50003784,-0.17002197,28.70004883,0.74304688
'1:45.750',1.06995453,-0.50003784,-0.17002197,28.70004883,0.74304688
'1:45.875',1.06995453,-0.50003784,-0.17002197,28.70004883,0.74304688
'1:46.000',1.06995453,-0.50003784,-0.17002197,28.70004883,0.74304688
'1:46.125',1.05996399,-0.50003784,-0.17002197,28.70004883,0.74304688
'1:46.250',1.06995453,-0.50003784,-0.17002197,28.70004883,0.73801798
'1:46.375',1.06995453,-0.50003784,-0.17002197,28.70004883,0.74304688
'1:46.500',1.06995453,-0.50003784,-0.17002197,28.70004883,0.74304688
'1:46.625',1.06995453,-0.50003784,-0.17002197,28.70004883,0.73801798
'1:46.750',1.06995453,-0.50003784,-0.17002197,28.70004883,0.73801798
'1:46.875',1.06995453,-0.50003784,-0.17002197,28.70004883,0.73603851
'1:47.000',1.06995453,-0.50003784,-0.17002197,28.90005188,0.73603851
'1:47.125',1.06995453,-0.50003784,-0.17002197,28.70004883,0.73603851
'1:47.250',1.06995453,-0.50003784,-0.17002197,28.70004883,0.73603851
'1:47.375',1.06995453,-0.50003784,-0.17002197,28.70004883,0.73603851
'1:47.500',1.06995453,-0.50003784,-0.17002197,28.70004883,0.73603851
'1:47.625',1.06995453,-0.50003784,-0.17002197,28.70004883,0.73603851
'1:47.750',1.06995453,-0.50003784,-0.17002197,28.90005188,0.73603851
'1:47.875',1.06995453,-0.50003784,-0.17002197,28.90005188,0.72801367
'1:48.000',1.06995453,-0.50003784,-0.17002197,28.70004883,0.73603851
'1:48.125',1.06995453,-0.50003784,-0.17002197,28.90005188,0.73304257
'1:48.250',1.06995453,-0.50003784,-0.17002197,28.70004883,0.72801367
'1:48.375',1.06995453,-0.50003784,-0.17002197,28.90005188,0.72801367
'1:48.500',1.06995453,-0.50003784,-0.17002197,28.70004883,0.72801367
'1:48.625',1.06995453,-0.50003784,-0.17002197,28.70004883,0.72801367
'1:48.750',1.06995453,-0.50003784,-0.17002197,28.70004883,0.72801367
'1:48.875',1.06995453,-0.50003784,-0.17002197,28.70004883,0.72801367
'1:49.000',1.06995453,-0.50003784,-0.16001801,28.90005188,0.72801367
'1:49.125',1.06995453,-0.50003784,-0.17002197,28.70004883,0.72303827
'1:49.250',1.06995453,-0.50003784,-0.17002197,28.90005188,0.72501773
'1:49.375',1.06995453,-0.50003784,-0.17002197,28.90005188,0.72303827
'1:49.500',1.06995453,-0.50003784,-0.17002197,28.70004883,0.72501773
'1:49.625',1.06995453,-0.50003784,-0.17002197,28.90005188,0.72501773
'1:49.750',1.06995453,-0.50003784,-0.17002197,28.90005188,0.72501773
'1:49.875',1.06995453,-0.50003784,-0.17002197,28.70004883,0.72004233
'1:50.000',1.06995453,-0.50003784,-0.17002197,28.90005188,0.72004233
'1:50.125',1.06995453,-0.50003784,-0.17002197,28.90005188,0.72004233
'1:50.250',1.06995453,-0.50003784,-0.17002197,28.90005188,0.71800937
'1:50.375',1.06995453,-0.50003784,-0.17002197,28.90005188,0.72004233
'1:50.500',1.06995453,-0.50003784,-0.17002197,28.90005188,0.71800937
'1:50.625',1.06995453,-0.50003784,-0.17002197,28.90005188,0.71800937
'1:50.750',1.06995453,-0.50003784,-0.17002197,28.70004883,0.71800937
'1:50.875',1.06995453,-0.50003784,-0.17002197,28.90005188,0.71800937
'1:51.000',1.06995453,-0.50003784,-0.17002197,28.90005188,0.71800937
'1:51.125',1.06995453,-0.50003784,-0.17002197,28.90005188,0.71800937
'1:51.250',1.06995453,-0.50003784,-0.17002197,28.90005188,0.71800937
'1:51.375',1.06995453,-0.50003784,-0.17002197,28.90005188,0.71800937
'1:51.500',1.06995453,-0.50003784,-0.17002197,28.90005188,0.71800937
'1:51.625',1.06995453,-0.50003784,-0.17002197,28.90005188,0.71303397
'1:51.750',1.06995453,-0.50003784,-0.17002197,28.90005188,0.71303397
'1:51.875',1.06995453,-0.50003784,-0.17002197,28.90005188,0.71303397
'1:52.000',1.06995453,-0.50003784,-0.17002197,28.90005188,0.71303397
'1:52.125',1.06995453,-0.50003784,-0.17002197,28.90005188,0.71303397
'1:52.250',1.06995453,-0.50003784,-0.17002197,28.90005188,0.71303397
'1:52.375',1.06995453,-0.50003784,-0.17002197,28.90005188,0.71303397
'1:52.500',1.06995453,-0.50003784,-0.17002197,28.90005188,0.71303397
'1:52.625',1.06995453,-0.50003784,-0.17002197,28.90005188,0.71303397
'1:52.750',1.06995453,-0.50003784,-0.17002197,28.90005188,0.71303397
'1:52.875',1.06995453,-0.50003784,-0.17002197,28.90005188,0.71303397
'1:53.000',1.06995453,-0.50003784,-0.17002197,28.90005188,0.71303397
'1:53.125',1.06995453,-0.50003784,-0.17002197,28.90005188,0.71303397
'1:53.250',1.05996399,-0.50003784,-0.17002197,28.90005188,0.70602561
'1:53.375',1.06995453,-0.50003784,-0.17002197,28.90005188,0.70602561
'1:53.500',1.06995453,-0.50003784,-0.17002197,28.90005188,0.70602561
'1:53.625',1.05996399,-0.50003784,-0.17002197,28.90005188,0.70602561
'1:53.750',1.06995453,-0.50003784,-0.17002197,28.90005188,0.70602561
'1:53.875',1.06995453,-0.50003784,-0.17002197,28.90005188,0.70602561
'1:54.000',1.06995453,-0.50003784,-0.17002197,28.90005188,0.70602561
'1:54.125',1.06995453,-0.50003784,-0.17002197,28.90005188,0.70302966
'1:54.250',1.06995453,-0.50003784,-0.17002197,28.90005188,0.70602561
'1:54.375',1.06995453,-0.50003784,-0.17002197,28.90005188,0.70302966
'1:54.500',1.06995453,-0.50003784,-0.17002197,28.90005188,0.70302966
'1:54.625',1.05996399,-0.50003784,-0.17002197,28.90005188,0.69800076
'1:54.750',1.06995453,-0.50003784,-0.17002197,28.90005188,0.70302966
'1:54.875',1.06995453,-0.50003784,-0.17002197,28.90005188,0.69800076
'1:55.000',1.06995453,-0.50003784,-0.17002197,28.90005188,0.69800076
'1:55.125',1.06995453,-0.50003784,-0.17002197,28.90005188,0.69800076
'1:55.250',1.06995453,-0.50003784,-0.17002197,28.90005188,0.69800076
'1:55.375',1.05996399,-0.50003784,-0.17002197,28.90005188,0.69800076
'1:55.500',1.06995453,-0.50003784,-0.17002197,28.90005188,0.69500482
'1:55.625',1.06995453,-0.50003784,-0.17002197,28.90005188,0.69500482
'1:55.750',1.06995453,-0.50003784,-0.17002197,28.90005188,0.69500482
'1:55.875',1.06995453,-0.50003784,-0.17002197,28.90005188,0.69500482
'1:56.000',1.06995453,-0.50003784,-0.17002197,28.90005188,0.69500482
'1:56.125',1.06995453,-0.50003784,-0.17002197,28.90005188,0.69500482
'1:56.250',1.06995453,-0.50003784,-0.17002197,28.90005188,0.69500482
'1:56.375',1.06995453,-0.50003784,-0.17002197,28.90005188,0.69500482
'1:56.500',1.06995453,-0.50003784,-0.17002197,28.90005188,0.69104590
'1:56.625',1.06995453,-0.50003784,-0.17002197,28.90005188,0.69500482
'1:56.750',1.06995453,-0.50003784,-0.17002197,28.90005188,0.69104590
'1:56.875',1.06995453,-0.50003784,-0.17002197,28.90005188,0.69104590
'1:57.000',1.06995453,-0.50003784,-0.17002197,28.90005188,0.69104590
'1:57.125',1.06995453,-0.50003784,-0.17002197,28.90005188,0.69104590
'1:57.250',1.06995453,-0.50003784,-0.17002197,28.90005188,0.69104590
'1:57.375',1.06995453,-0.50003784,-0.17002197,28.90005188,0.69104590
'1:57.500',1.06995453,-0.50003784,-0.17002197,28.90005188,0.69104590
'1:57.625',1.06995453,-0.50003784,-0.17002197,28.90005188,0.69104590
'1:57.750',1.06995453,-0.50003784,-0.17002197,28.90005188,0.69104590
'1:57.875',1.06995453,-0.50003784,-0.17002197,28.90005188,0.69104590
'1:58.000',1.06995453,-0.50003784,-0.17002197,28.90005188,0.69104590
'1:58.125',1.06995453,-0.50003784,-0.17002197,28.90005188,0.69104590
'1:58.250',1.06995453,-0.50003784,-0.17002197,28.90005188,0.68302106
'1:58.375',1.06995453,-0.50003784,-0.17002197,28.90005188,0.68302106
'1:58.500',1.06995453,-0.50003784,-0.17002197,28.90005188,0.68804996
'1:58.625',1.06995453,-0.50003784,-0.17002197,28.90005188,0.68302106
'1:58.750',1.06995453,-0.50003784,-0.17002197,28.90005188,0.68302106
'1:58.875',1.06995453,-0.50003784,-0.17002197,28.90005188,0.68302106
'1:59.000',1.05996399,-0.50003784,-0.17002197,28.90005188,0.68302106
'1:59.125',1.06995453,-0.50003784,-0.17002197,28.90005188,0.68302106
'1:59.250',1.06995453,-0.50003784,-0.17002197,28.90005188,0.68302106
'1:59.375',1.06995453,-0.50003784,-0.17002197,28.90005188,0.68302106
'1:59.500',1.06995453,-0.50003784,-0.17002197,28.90005188,0.68104160
'1:59.625',1.06995453,-0.50003784,-0.17002197,29.10005493,0.68104160
'1:59.750',1.06995453,-0.50003784,-0.17002197,28.90005188,0.68500052
'1:59.875',1.06995453,-0.50003784,-0.17002197,29.10005493,0.68104160
'2:00.000',1.06995453,-0.50003784,-0.17002197,28.90005188,0.67601270
'2:00.125',1.07999878,-0.50003784,-0.17002197,28.90005188,0.68104160
'2:00.250',1.05996399,-0.50003784,-0.17002197,28.90005188,0.67601270
'2:00.375',1.06995453,-0.50003784,-0.18002594,28.90005188,0.67601270
'2:00.500',1.06995453,-0.50003784,-0.17002197,29.10005493,0.67601270
'2:00.625',1.06995453,-0.50003784,-0.17002197,28.90005188,0.67601270
'2:00.750',1.06995453,-0.50003784,-0.17002197,28.90005188,0.67301675
'2:00.875',1.06995453,-0.50003784,-0.17002197,28.90005188,0.67301675
'2:01.000',1.06995453,-0.50003784,-0.17002197,28.90005188,0.67301675
'2:01.125',1.06995453,-0.50003784,-0.17002197,28.90005188,0.67301675
'2:01.250',1.06995453,-0.50003784,-0.17002197,28.90005188,0.67301675
'2:01.375',1.05996399,-0.50003784,-0.17002197,28.90005188,0.67301675
'2:01.500',1.06995453,-0.50003784,-0.17002197,29.10005493,0.67301675
'2:01.625',1.06995453,-0.50003784,-0.17002197,29.10005493,0.66900433
'2:01.750',1.06995453,-0.50003784,-0.17002197,28.90005188,0.66900433
'2:01.875',1.06995453,-0.50003784,-0.17002197,29.10005493,0.66900433
'2:02.000',1.06995453,-0.50003784,-0.17002197,28.90005188,0.66900433
'2:02.125',1.06995453,-0.50003784,-0.17002197,28.90005188,0.67103729
'2:02.250',1.06995453,-0.50003784,-0.17002197,28.90005188,0.66900433
'2:02.375',1.06995453,-0.50003784,-0.17002197,28.90005188,0.66900433
'2:02.500',1.06995453,-0.50003784,-0.17002197,29.10005493,0.67301675
'2:02.625',1.06995453,-0.50003784,-0.17002197,28.90005188,0.66900433
'2:02.750',1.06995453,-0.50003784,-0.17002197,28.90005188,0.66900433
'2:02.875',1.06995453,-0.50003784,-0.17002197,29.10005493,0.66900433
'2:03.000',1.06995453,-0.50003784,-0.17002197,29.10005493,0.66900433
'2:03.125',1.06995453,-0.50003784,-0.17002197,29.10005493,0.66900433
'2:03.250',1.06995453,-0.50003784,-0.17002197,28.90005188,0.66900433
'2:03.375',1.06995453,-0.50003784,-0.17002197,29.10005493,0.66900433
'2:03.500',1.06995453,-0.50003784,-0.17002197,29.10005493,0.66900433
'2:03.625',1.06995453,-0.50003784,-0.17002197,28.90005188,0.66900433
'2:03.750',1.06995453,-0.50003784,-0.17002197,29.10005493,0.66900433
'2:03.875',1.06995453,-0.50003784,-0.17002197,29.10005493,0.66900433
'2:04.000',1.06995453,-0.50003784,-0.17002197,29.10005493,0.66900433
'2:04.125',1.06995453,-0.50003784,-0.17002197,29.10005493,0.66900433
'2:04.250',1.05996399,-0.50003784,-0.17002197,28.90005188,0.66900433
'2:04.375',1.06995453,-0.50003784,-0.17002197,28.90005188,0.66900433
'2:04.500',1.05996399,-0.50003784,-0.17002197,29.10005493,0.66900433
'2:04.625',1.06995453,-0.50003784,-0.17002197,29.10005493,0.66204947
'2:04.750',1.06995453,-0.50003784,-0.17002197,29.10005493,0.66204947
'2:04.875',1.05996399,-0.50003784,-0.17002197,29.10005493,0.66204947
'2:05.000',1.06995453,-0.50003784,-0.17002197,29.10005493,0.66204947
'2:05.125',1.06995453,-0.50003784,-0.17002197,29.10005493,0.66204947
'2:05.250',1.06995453,-0.50003784,-0.17002197,28.90005188,0.66204947
'2:05.375',1.06995453,-0.50003784,-0.17002197,29.10005493,0.66204947
'2:05.500',1.06995453,-0.50003784,-0.17002197,29.30005799,0.66103299
'2:05.625',1.06995453,-0.50003784,-0.17002197,29.30005799,0.65402463
'2:05.750',1.05996399,-0.50003784,-0.18002594,29.30005799,0.65900003
'2:05.875',1.05996399,-0.50003784,-0.18002594,29.10005493,0.65702057
'2:06.000',1.06995453,-0.50003784,-0.17002197,29.10005493,0.65900003
'2:06.125',1.06995453,-0.50003784,-0.17002197,29.10005493,0.65402463
'2:06.250',1.06995453,-0.50003784,-0.17002197,29.10005493,0.65402463
'2:06.375',1.06995453,-0.50003784,-0.17002197,29.10005493,0.65402463
'2:06.500',1.07999878,-0.50003784,-0.17002197,29.10005493,0.65600409
'2:06.625',1.06995453,-0.50003784,-0.17002197,29.10005493,0.65402463
'2:06.750',1.05996399,-0.50003784,-0.17002197,29.10005493,0.65402463
'2:06.875',1.07999878,-0.50003784,-0.17002197,29.10005493,0.65402463
'2:07.000',1.06995453,-0.50003784,-0.17002197,29.10005493,0.65402463
'2:07.125',1.06995453,-0.50003784,-0.17002197,29.10005493,0.65402463
'2:07.250',1.06995453,-0.50003784,-0.18002594,29.10005493,0.65204517
'2:07.375',1.06995453,-0.50003784,-0.17002197,29.10005493,0.65204517
'2:07.500',1.06995453,-0.50003784,-0.17002197,29.10005493,0.65204517
'2:07.625',1.06995453,-0.50003784,-0.17002197,29.10005493,0.65204517
'2:07.750',1.06995453,-0.50003784,-0.17002197,29.10005493,0.65204517
'2:07.875',1.06995453,-0.50003784,-0.17002197,29.10005493,0.65204517
'2:08.000',1.06995453,-0.50003784,-0.17002197,29.10005493,0.64701627
'2:08.125',1.06995453,-0.50003784,-0.17002197,29.10005493,0.64904923
'2:08.250',1.06995453,-0.50003784,-0.17002197,29.10005493,0.64503681
'2:08.375',1.07999878,-0.50003784,-0.17002197,29.10005493,0.64701627
'2:08.500',1.05996399,-0.50003784,-0.17002197,29.10005493,0.64701627
'2:08.625',1.06995453,-0.50003784,-0.17002197,29.10005493,0.64701627
'2:08.750',1.06995453,-0.50003784,-0.17002197,29.10005493,0.64503681
'2:08.875',1.06995453,-0.50003784,-0.17002197,29.10005493,0.64503681
'2:09.000',1.05996399,-0.50003784,-0.17002197,29.10005493,0.64503681
'2:09.125',1.06995453,-0.50003784,-0.17002197,29.10005493,0.64503681
'2:09.250',1.06995453,-0.50003784,-0.17002197,29.10005493,0.64000790
'2:09.375',1.06995453,-0.50003784,-0.17002197,29.10005493,0.64503681
'2:09.500',1.06995453,-0.50003784,-0.17002197,29.10005493,0.64000790
'2:09.625',1.06995453,-0.50003784,-0.17002197,29.10005493,0.64503681
'2:09.750',1.06995453,-0.50003784,-0.17002197,29.10005493,0.64000790
'2:09.875',1.06995453,-0.50003784,-0.17002197,29.10005493,0.64000790
'2:10.000',1.06995453,-0.50003784,-0.17002197,29.10005493,0.64204086
'2:10.125',1.05996399,-0.50003784,-0.17002197,29.10005493,0.64000790
'2:10.250',1.06995453,-0.50003784,-0.17002197,29.10005493,0.64000790
'2:10.375',1.06995453,-0.50003784,-0.17002197,29.10005493,0.64000790
'2:10.500',1.06995453,-0.50003784,-0.17002197,29.10005493,0.64000790
'2:10.625',1.06995453,-0.50003784,-0.17002197,29.10005493,0.64000790
'2:10.750',1.06995453,-0.50003784,-0.17002197,29.10005493,0.64000790
'2:10.875',1.06995453,-0.50003784,-0.17002197,29.10005493,0.64000790
'2:11.000',1.05996399,-0.50003784,-0.17002197,29.10005493,0.64000790
'2:11.125',1.05996399,-0.50003784,-0.17002197,29.10005493,0.63802844
'2:11.250',1.06995453,-0.50003784,-0.17002197,29.10005493,0.63305304
'2:11.375',1.06995453,-0.50003784,-0.17002197,29.10005493,0.63305304
'2:11.500',1.06995453,-0.50003784,-0.17002197,29.10005493,0.63305304
'2:11.625',1.06995453,-0.50003784,-0.17002197,29.10005493,0.63305304
'2:11.750',1.06995453,-0.50003784,-0.17002197,29.10005493,0.63305304
'2:11.875',1.06995453,-0.50003784,-0.17002197,29.10005493,0.63305304
'2:12.000',1.06995453,-0.50003784,-0.17002197,29.10005493,0.63305304
'2:12.125',1.06995453,-0.50003784,-0.17002197,29.10005493,0.63305304
'2:12.250',1.06995453,-0.50003784,-0.17002197,29.10005493,0.63305304
'2:12.375',1.06995453,-0.50003784,-0.17002197,29.10005493,0.63305304
'2:12.500',1.06995453,-0.50003784,-0.17002197,29.10005493,0.63305304
'2:12.625',1.06995453,-0.50003784,-0.17002197,29.10005493,0.63305304
'2:12.750',1.06995453,-0.50003784,-0.17002197,29.10005493,0.63102008
'2:12.875',1.06995453,-0.50003784,-0.17002197,29.10005493,0.62604468
'2:13.000',1.06995453,-0.50003784,-0.17002197,29.10005493,0.62604468
'2:13.125',1.06995453,-0.50003784,-0.17002197,29.10005493,0.62604468
'2:13.250',1.06995453,-0.50003784,-0.17002197,29.10005493,0.62604468
'2:13.375',1.06995453,-0.50003784,-0.17002197,29.10005493,0.62604468
'2:13.500',1.06995453,-0.50003784,-0.17002197,29.10005493,0.62604468
'2:13.625',1.06995453,-0.50003784,-0.17002197,29.10005493,0.62604468
'2:13.750',1.06995453,-0.50003784,-0.17002197,29.10005493,0.62604468
'2:13.875',1.06995453,-0.50003784,-0.17002197,29.10005493,0.62604468
'2:14.000',1.06995453,-0.50003784,-0.17002197,29.10005493,0.62401172
'2:14.125',1.06995453,-0.50003784,-0.17002197,29.10005493,0.62401172
'2:14.250',1.06995453,-0.50003784,-0.17002197,29.10005493,0.62401172
'2:14.375',1.05996399,-0.50003784,-0.17002197,29.10005493,0.62401172
'2:14.500',1.06995453,-0.50003784,-0.17002197,29.10005493,0.62101578
'2:14.625',1.05996399,-0.50003784,-0.17002197,29.10005493,0.62401172
'2:14.750',1.06995453,-0.50003784,-0.17002197,29.10005493,0.62401172
'2:14.875',1.07999878,-0.50003784,-0.17002197,29.10005493,0.62401172
'2:15.000',1.06995453,-0.50003784,-0.17002197,29.10005493,0.62401172
'2:15.125',1.06995453,-0.50003784,-0.17002197,29.10005493,0.61903632
'2:15.250',1.06995453,-0.50003784,-0.17002197,29.10005493,0.61903632
'2:15.375',1.05996399,-0.50003784,-0.17002197,29.10005493,0.62401172
'2:15.500',1.06995453,-0.50003784,-0.17002197,29.10005493,0.61903632
'2:15.625',1.06995453,-0.50003784,-0.17002197,29.10005493,0.62101578
'2:15.750',1.06995453,-0.50003784,-0.17002197,29.10005493,0.61903632
'2:15.875',1.06995453,-0.50003784,-0.17002197,29.10005493,0.62101578
'2:16.000',1.06995453,-0.50003784,-0.17002197,29.10005493,0.61903632
'2:16.125',1.06995453,-0.50003784,-0.17002197,29.10005493,0.61903632
'2:16.250',1.06995453,-0.50003784,-0.17002197,29.10005493,0.61903632
'2:16.375',1.06995453,-0.50003784,-0.16001801,29.10005493,0.61903632
'2:16.500',1.06995453,-0.50003784,-0.17002197,29.10005493,0.61903632
'2:16.625',1.06995453,-0.50003784,-0.17002197,29.10005493,0.61903632
'2:16.750',1.06995453,-0.50003784,-0.17002197,29.10005493,0.61903632
'2:16.875',1.06995453,-0.50003784,-0.17002197,29.10005493,0.61903632
'2:17.000',1.06995453,-0.50003784,-0.17002197,29.10005493,0.61202795
'2:17.125',1.06995453,-0.50003784,-0.17002197,29.10005493,0.61202795
'2:17.250',1.06995453,-0.50003784,-0.17002197,29.10005493,0.61700336
'2:17.375',1.06995453,-0.50003784,-0.17002197,29.10005493,0.61202795
'2:17.500',1.06995453,-0.50003784,-0.17002197,29.10005493,0.61202795
'2:17.625',1.06995453,-0.50003784,-0.17002197,29.10005493,0.61202795
'2:17.750',1.06995453,-0.50003784,-0.17002197,29.10005493,0.61202795
'2:17.875',1.06995453,-0.50003784,-0.17002197,29.10005493,0.61202795
'2:18.000',1.06995453,-0.50003784,-0.17002197,29.10005493,0.61202795
'2:18.125',1.06995453,-0.50003784,-0.17002197,29.10005493,0.61202795
'2:18.250',1.06995453,-0.50003784,-0.17002197,29.10005493,0.61101147
'2:18.375',1.06995453,-0.50003784,-0.17002197,29.10005493,0.60501959
'2:18.500',1.06995453,-0.50003784,-0.17002197,29.10005493,0.61004849
'2:18.625',1.06995453,-0.50003784,-0.17002197,29.10005493,0.61004849
'2:18.750',1.06995453,-0.50003784,-0.17002197,29.30005799,0.61004849
'2:18.875',1.06995453,-0.50003784,-0.17002197,29.10005493,0.60501959
'2:19.000',1.06995453,-0.50003784,-0.17002197,29.30005799,0.60501959
'2:19.125',1.06995453,-0.50003784,-0.17002197,29.10005493,0.60501959
'2:19.250',1.06995453,-0.50003784,-0.17002197,29.10005493,0.60501959
'2:19.375',1.06995453,-0.50003784,-0.17002197,29.10005493,0.60501959
'2:19.500',1.06995453,-0.50003784,-0.17002197,29.10005493,0.60501959
'2:19.625',1.06995453,-0.50003784,-0.17002197,29.10005493,0.60501959
'2:19.750',1.06995453,-0.50003784,-0.17002197,29.30005799,0.60304013
'2:19.875',1.06995453,-0.50003784,-0.17002197,29.10005493,0.60501959
'2:20.000',1.06995453,-0.50003784,-0.17002197,29.30005799,0.60501959
'2:20.125',1.06995453,-0.50003784,-0.17002197,29.10005493,0.60501959
'2:20.250',1.06995453,-0.50003784,-0.17002197,29.30005799,0.60304013
'2:20.375',1.06995453,-0.50003784,-0.17002197,29.10005493,0.60304013
'2:20.500',1.06995453,-0.50003784,-0.17002197,29.10005493,0.60304013
'2:20.625',1.06995453,-0.50003784,-0.17002197,29.30005799,0.60304013
'2:20.750',1.06995453,-0.50003784,-0.17002197,29.30005799,0.59801123
'2:20.875',1.06995453,-0.50003784,-0.17002197,29.10005493,0.60304013
'2:21.000',1.06995453,-0.50003784,-0.17002197,29.30005799,0.60304013
'2:21.125',1.06995453,-0.50003784,-0.17002197,29.10005493,0.59801123
'2:21.250',1.06995453,-0.50003784,-0.17002197,29.30005799,0.59801123
'2:21.375',1.05996399,-0.50003784,-0.17002197,29.30005799,0.59801123
'2:21.500',1.06995453,-0.50003784,-0.17002197,29.30005799,0.60004419
'2:21.625',1.06995453,-0.50003784,-0.17002197,29.10005493,0.59801123
'2:21.750',1.06995453,-0.50003784,-0.17002197,29.30005799,0.59801123
'2:21.875',1.05996399,-0.50003784,-0.17002197,29.30005799,0.59801123
'2:22.000',1.06995453,-0.50003784,-0.17002197,29.30005799,0.59801123
'2:22.125',1.06995453,-0.50003784,-0.17002197,29.30005799,0.59801123
'2:22.250',1.06995453,-0.50003784,-0.17002197,29.30005799,0.59801123
'2:22.375',1.06995453,-0.50003784,-0.17002197,29.30005799,0.59405231
'2:22.500',1.06995453,-0.50003784,-0.17002197,29.10005493,0.59801123
'2:22.625',1.06995453,-0.50003784,-0.17002197,29.30005799,0.59405231
'2:22.750',1.06995453,-0.50003784,-0.17002197,29.30005799,0.59801123
'2:22.875',1.06995453,-0.50003784,-0.17002197,29.30005799,0.59801123
'2:23.000',1.06995453,-0.50003784,-0.17002197,29.30005799,0.59801123
'2:23.125',1.06995453,-0.50003784,-0.17002197,29.30005799,0.59201935
'2:23.250',1.06995453,-0.50003784,-0.17002197,29.30005799,0.59201935
'2:23.375',1.06995453,-0.50003784,-0.17002197,29.30005799,0.59201935
'2:23.500',1.06995453,-0.50003784,-0.17002197,29.30005799,0.59201935
'2:23.625',1.06995453,-0.50003784,-0.17002197,29.30005799,0.59201935
'2:23.750',1.06995453,-0.50003784,-0.17002197,29.10005493,0.59201935
'2:23.875',1.06995453,-0.50003784,-0.17002197,29.30005799,0.59201935
'2:24.000',1.05996399,-0.50003784,-0.17002197,29.30005799,0.59201935
'2:24.125',1.06995453,-0.50003784,-0.17002197,29.30005799,0.59201935
'2:24.250',1.06995453,-0.50003784,-0.17002197,29.10005493,0.59201935
'2:24.375',1.06995453,-0.50003784,-0.17002197,29.30005799,0.58902341
'2:24.500',1.05996399,-0.50003784,-0.17002197,29.30005799,0.58902341
'2:24.625',1.06995453,-0.50003784,-0.17002197,29.30005799,0.58902341
'2:24.750',1.05996399,-0.50003784,-0.17002197,29.30005799,0.58501099
'2:24.875',1.06995453,-0.50003784,-0.17002197,29.30005799,0.58501099
'2:25.000',1.06995453,-0.50003784,-0.17002197,29.30005799,0.58501099
'2:25.125',1.06995453,-0.50003784,-0.17002197,29.30005799,0.58501099
'2:25.250',1.06995453,-0.50003784,-0.17002197,29.30005799,0.58501099
'2:25.375',1.06995453,-0.50003784,-0.17002197,29.30005799,0.58501099
'2:25.500',1.06995453,-0.50003784,-0.17002197,29.30005799,0.58501099
'2:25.625',1.06995453,-0.50003784,-0.17002197,29.30005799,0.58602747
'2:25.750',1.06995453,-0.50003784,-0.17002197,29.30005799,0.58201505
'2:25.875',1.06995453,-0.50003784,-0.17002197,29.30005799,0.58201505
'2:26.000',1.06995453,-0.50003784,-0.17002197,29.30005799,0.58201505
'2:26.125',1.06995453,-0.50003784,-0.17002197,29.30005799,0.58201505
'2:26.250',1.06995453,-0.50003784,-0.17002197,29.30005799,0.58201505
'2:26.375',1.07999878,-0.50003784,-0.17002197,29.30005799,0.57800262
'2:26.500',1.06995453,-0.50003784,-0.17002197,29.30005799,0.57800262
'2:26.625',1.05996399,-0.50003784,-0.17002197,29.30005799,0.58201505
'2:26.750',1.06995453,-0.50003784,-0.17002197,29.30005799,0.57800262
'2:26.875',1.06995453,-0.50003784,-0.17002197,29.30005799,0.57800262
'2:27.000',1.07999878,-0.50003784,-0.17002197,29.30005799,0.57800262
'2:27.125',1.06995453,-0.50003784,-0.17002197,29.30005799,0.57703964
'2:27.250',1.06995453,-0.50003784,-0.17002197,29.30005799,0.57800262
'2:27.375',1.06995453,-0.50003784,-0.17002197,29.30005799,0.57500668
'2:27.500',1.06995453,-0.50003784,-0.17002197,29.30005799,0.57500668
'2:27.625',1.06995453,-0.50003784,-0.17002197,29.30005799,0.57500668
'2:27.750',1.06995453,-0.50003784,-0.17002197,29.30005799,0.57500668
'2:27.875',1.06995453,-0.50003784,-0.17002197,29.30005799,0.57500668
'2:28.000',1.06995453,-0.50003784,-0.17002197,29.30005799,0.57500668
'2:28.125',1.06995453,-0.50003784,-0.17002197,29.30005799,0.57500668
'2:28.250',1.06995453,-0.50003784,-0.17002197,29.30005799,0.57500668
'2:28.375',1.06995453,-0.50003784,-0.17002197,29.30005799,0.57500668
'2:28.500',1.05996399,-0.50003784,-0.17002197,29.30005799,0.57104776
'2:28.625',1.05996399,-0.50003784,-0.17002197,29.30005799,0.57104776
'2:28.750',1.06995453,-0.50003784,-0.17002197,29.30005799,0.57104776
'2:28.875',1.06995453,-0.50003784,-0.17002197,29.30005799,0.57500668
'2:29.000',1.06995453,-0.50003784,-0.17002197,29.30005799,0.57104776
'2:29.125',1.06995453,-0.50003784,-0.17002197,29.30005799,0.57104776
'2:29.250',1.06995453,-0.50003784,-0.17002197,29.30005799,0.57104776
'2:29.375',1.06995453,-0.50003784,-0.17002197,29.30005799,0.57104776
'2:29.500',1.06995453,-0.50003784,-0.17002197,29.30005799,0.57104776
'2:29.625',1.06995453,-0.50003784,-0.17002197,29.30005799,0.57104776
'2:29.750',1.05996399,-0.50003784,-0.17002197,29.30005799,0.57104776
'2:29.875',1.06995453,-0.50003784,-0.17002197,29.30005799,0.57104776
'2:30.000',1.06995453,-0.50003784,-0.17002197,29.30005799,0.57104776
'2:30.125',1.06995453,-0.50003784,-0.17002197,29.30005799,0.57104776
'2:30.250',1.05996399,-0.50003784,-0.17002197,29.30005799,0.56901480
'2:30.375',1.06995453,-0.50003784,-0.17002197,29.30005799,0.56901480
'2:30.500',1.06995453,-0.50003784,-0.17002197,29.30005799,0.56901480
'2:30.625',1.06995453,-0.50003784,-0.17002197,29.30005799,0.56901480
'2:30.750',1.06995453,-0.50003784,-0.17002197,29.30005799,0.56500238
'2:30.875',1.06995453,-0.50003784,-0.17002197,29.30005799,0.56500238
'2:31.000',1.06995453,-0.50003784,-0.17002197,29.30005799,0.56500238
'2:31.125',1.05996399,-0.50003784,-0.17002197,29.30005799,0.56500238
'2:31.250',1.06995453,-0.50003784,-0.17002197,29.30005799,0.56500238
'2:31.375',1.06995453,-0.50003784,-0.17002197,29.30005799,0.56500238
'2:31.500',1.06995453,-0.50003784,-0.17002197,29.30005799,0.56500238
'2:31.625',1.06995453,-0.50003784,-0.17002197,29.30005799,0.56302292
'2:31.750',1.06995453,-0.50003784,-0.17002197,29.30005799,0.56200644
'2:31.875',1.06995453,-0.50003784,-0.17002197,29.30005799,0.56200644
'2:32.000',1.06995453,-0.50003784,-0.17002197,29.30005799,0.56200644
'2:32.125',1.06995453,-0.50003784,-0.17002197,29.30005799,0.56200644
'2:32.250',1.06995453,-0.50003784,-0.17002197,29.30005799,0.56200644
'2:32.375',1.06995453,-0.50003784,-0.17002197,29.30005799,0.55804752
'2:32.500',1.06995453,-0.50003784,-0.17002197,29.30005799,0.55804752
'2:32.625',1.06995453,-0.50003784,-0.17002197,29.30005799,0.56200644
'2:32.750',1.05996399,-0.50003784,-0.17002197,29.30005799,0.56200644
'2:32.875',1.06995453,-0.50003784,-0.17002197,29.30005799,0.55804752
'2:33.000',1.06995453,-0.50003784,-0.17002197,29.30005799,0.55804752
'2:33.125',1.06995453,-0.50003784,-0.17002197,29.30005799,0.56200644
'2:33.250',1.06995453,-0.50003784,-0.17002197,29.30005799,0.55804752
'2:33.375',1.05996399,-0.50003784,-0.17002197,29.30005799,0.55804752
'2:33.500',1.06995453,-0.50003784,-0.17002197,29.30005799,0.55804752
'2:33.625',1.05996399,-0.50003784,-0.17002197,29.30005799,0.55804752
'2:33.750',1.06995453,-0.50003784,-0.17002197,29.30005799,0.55804752
'2:33.875',1.06995453,-0.50003784,-0.17002197,29.30005799,0.56200644
'2:34.000',1.06995453,-0.50003784,-0.17002197,29.30005799,0.56200644
'2:34.125',1.06995453,-0.50003784,-0.17002197,29.30005799,0.56200644
'2:34.250',1.06995453,-0.50003784,-0.17002197,29.30005799,0.56200644
'2:34.375',1.07999878,-0.50003784,-0.17002197,29.30005799,0.56200644
'2:34.500',1.06995453,-0.50003784,-0.17002197,29.30005799,0.56200644
'2:34.625',1.06995453,-0.50003784,-0.17002197,29.30005799,0.56200644
'2:34.750',1.06995453,-0.50003784,-0.17002197,29.30005799,0.56200644
'2:34.875',1.06995453,-0.50003784,-0.17002197,29.30005799,0.55804752
'2:35.000',1.06995453,-0.50003784,-0.17002197,29.30005799,0.56200644
'2:35.125',1.06995453,-0.50003784,-0.17002197,29.30005799,0.56200644
'2:35.250',1.06995453,-0.50003784,-0.17002197,29.30005799,0.55804752
'2:35.375',1.06995453,-0.50003784,-0.17002197,29.50006104,0.55804752
'2:35.500',1.06995453,-0.50003784,-0.17002197,29.30005799,0.55804752
'2:35.625',1.06995453,-0.50003784,-0.17002197,29.30005799,0.55505158
'2:35.750',1.06995453,-0.50003784,-0.17002197,29.30005799,0.55505158
'2:35.875',1.06995453,-0.50003784,-0.17002197,29.30005799,0.55505158
'2:36.000',1.06995453,-0.50003784,-0.17002197,29.30005799,0.55505158
'2:36.125',1.06995453,-0.50003784,-0.17002197,29.30005799,0.55505158
'2:36.250',1.06995453,-0.50003784,-0.17002197,29.30005799,0.55505158
'2:36.375',1.06995453,-0.50003784,-0.17002197,29.30005799,0.55505158
'2:36.500',1.06995453,-0.50003784,-0.17002197,29.30005799,0.55505158
'2:36.625',1.06995453,-0.50003784,-0.17002197,29.30005799,0.55505158
'2:36.750',1.06995453,-0.50003784,-0.17002197,29.30005799,0.55505158
'2:36.875',1.06995453,-0.50003784,-0.17002197,29.30005799,0.55505158
'2:37.000',1.06995453,-0.50003784,-0.17002197,29.30005799,0.55103916
'2:37.125',1.06995453,-0.50003784,-0.17002197,29.50006104,0.55103916
'2:37.250',1.06995453,-0.50003784,-0.17002197,29.30005799,0.55103916
'2:37.375',1.06995453,-0.50003784,-0.17002197,29.30005799,0.55103916
'2:37.500',1.06995453,-0.50003784,-0.17002197,29.30005799,0.55103916
'2:37.625',1.06995453,-0.50003784,-0.17002197,29.30005799,0.55103916
'2:37.750',1.06995453,-0.50003784,-0.17002197,29.30005799,0.55103916
'2:37.875',1.06995453,-0.50003784,-0.17002197,29.50006104,0.55103916
'2:38.000',1.06995453,-0.50003784,-0.17002197,29.30005799,0.55103916
'2:38.125',1.06995453,-0.50003784,-0.17002197,29.30005799,0.55103916
'2:38.250',1.06995453,-0.50003784,-0.17002197,29.30005799,0.55103916
'2:38.375',1.06995453,-0.50003784,-0.17002197,29.50006104,0.55103916
'2:38.500',1.07999878,-0.50003784,-0.17002197,29.30005799,0.55103916
'2:38.625',1.06995453,-0.50003784,-0.17002197,29.30005799,0.55301862
'2:38.750',1.06995453,-0.50003784,-0.17002197,29.30005799,0.55103916
'2:38.875',1.06995453,-0.50003784,-0.17002197,29.30005799,0.55103916
'2:39.000',1.05996399,-0.50003784,-0.17002197,29.50006104,0.54900620
'2:39.125',1.06995453,-0.50003784,-0.17002197,29.30005799,0.54504727
'2:39.250',1.07999878,-0.49004730,-0.17002197,29.50006104,0.54504727
'2:39.375',1.06995453,-0.50003784,-0.17002197,29.30005799,0.54900620
'2:39.500',1.06995453,-0.50003784,-0.17002197,29.30005799,0.54504727
'2:39.625',1.06995453,-0.49004730,-0.17002197,29.30005799,0.54504727
'2:39.750',1.06995453,-0.50003784,-0.17002197,29.50006104,0.54504727
'2:39.875',1.06995453,-0.50003784,-0.17002197,29.30005799,0.54504727
'2:40.000',1.06995453,-0.50003784,-0.17002197,29.30005799,0.54504727
'2:40.125',1.06995453,-0.50003784,-0.17002197,29.50006104,0.54504727
'2:40.250',1.06995453,-0.50003784,-0.17002197,29.50006104,0.54504727
'2:40.375',1.06995453,-0.50003784,-0.17002197,29.50006104,0.54504727
'2:40.500',1.06995453,-0.50003784,-0.17002197,29.30005799,0.54504727
'2:40.625',1.06995453,-0.50003784,-0.17002197,29.50006104,0.54205133
'2:40.750',1.06995453,-0.50003784,-0.17002197,29.50006104,0.54205133
'2:40.875',1.06995453,-0.50003784,-0.17002197,29.30005799,0.54205133
'2:41.000',1.07999878,-0.50003784,-0.17002197,29.50006104,0.54205133
'2:41.125',1.06995453,-0.50003784,-0.17002197,29.50006104,0.53803891
'2:41.250',1.06995453,-0.50003784,-0.17002197,29.30005799,0.53803891
'2:41.375',1.06995453,-0.50003784,-0.17002197,29.50006104,0.53803891
'2:41.500',1.06995453,-0.50003784,-0.17002197,29.50006104,0.53803891
'2:41.625',1.06995453,-0.50003784,-0.17002197,29.50006104,0.53803891
'2:41.750',1.06995453,-0.50003784,-0.17002197,29.50006104,0.53803891
'2:41.875',1.06995453,-0.50003784,-0.17002197,29.30005799,0.53803891
'2:42.000',1.06995453,-0.50003784,-0.18002594,29.50006104,0.53803891
'2:42.125',1.06995453,-0.50003784,-0.17002197,29.50006104,0.53702243
'2:42.250',1.06995453,-0.50003784,-0.17002197,29.50006104,0.53803891
'2:42.375',1.06995453,-0.50003784,-0.17002197,29.50006104,0.53600595
'2:42.500',1.07999878,-0.49004730,-0.17002197,29.30005799,0.53600595
'2:42.625',1.07999878,-0.50003784,-0.17002197,29.50006104,0.53600595
'2:42.750',1.06995453,-0.50003784,-0.17002197,29.50006104,0.53600595
'2:42.875',1.06995453,-0.50003784,-0.17002197,29.50006104,0.53600595
'2:43.000',1.06995453,-0.50003784,-0.17002197,29.50006104,0.53600595
'2:43.125',1.06995453,-0.50003784,-0.17002197,29.50006104,0.53600595
'2:43.250',1.07999878,-0.50003784,-0.17002197,29.50006104,0.53600595
'2:43.375',1.06995453,-0.49004730,-0.17002197,29.50006104,0.53600595
'2:43.500',1.06995453,-0.50003784,-0.17002197,29.30005799,0.53600595
'2:43.625',1.06995453,-0.49004730,-0.17002197,29.50006104,0.53204703
'2:43.750',1.06995453,-0.50003784,-0.17002197,29.50006104,0.53204703
'2:43.875',1.05996399,-0.49004730,-0.17002197,29.50006104,0.53204703
'2:44.000',1.06995453,-0.50003784,-0.17002197,29.50006104,0.53204703
'2:44.125',1.06995453,-0.50003784,-0.17002197,29.50006104,0.53204703
'2:44.250',1.06995453,-0.49004730,-0.17002197,29.50006104,0.53204703
'2:44.375',1.06995453,-0.50003784,-0.17002197,29.50006104,0.53204703
'2:44.500',1.06995453,-0.50003784,-0.17002197,29.50006104,0.53204703
'2:44.625',1.06995453,-0.50003784,-0.17002197,29.50006104,0.53204703
'2:44.750',1.07999878,-0.49004730,-0.17002197,29.50006104,0.53204703
'2:44.875',1.06995453,-0.50003784,-0.17002197,29.50006104,0.53204703
'2:45.000',1.06995453,-0.50003784,-0.17002197,29.50006104,0.53204703
'2:45.125',1.06995453,-0.50003784,-0.17002197,29.50006104,0.53204703
'2:45.250',1.06995453,-0.50003784,-0.17002197,29.50006104,0.53204703
'2:45.375',1.06995453,-0.50003784,-0.17002197,29.50006104,0.53204703
'2:45.500',1.06995453,-0.50003784,-0.17002197,29.50006104,0.52803461
'2:45.625',1.06995453,-0.50003784,-0.17002197,29.50006104,0.52803461
'2:45.750',1.06995453,-0.50003784,-0.17002197,29.50006104,0.53204703
'2:45.875',1.06995453,-0.50003784,-0.17002197,29.50006104,0.52503867
'2:46.000',1.06995453,-0.50003784,-0.18002594,29.50006104,0.52503867
'2:46.125',1.06995453,-0.50003784,-0.17002197,29.50006104,0.52503867
'2:46.250',1.06995453,-0.50003784,-0.17002197,29.50006104,0.52503867
'2:46.375',1.05996399,-0.50003784,-0.17002197,29.50006104,0.52503867
'2:46.500',1.06995453,-0.50003784,-0.17002197,29.50006104,0.52503867
'2:46.625',1.07999878,-0.49004730,-0.17002197,29.50006104,0.52503867
'2:46.750',1.07999878,-0.50003784,-0.17002197,29.50006104,0.52503867
'2:46.875',1.06995453,-0.50003784,-0.18002594,29.50006104,0.52503867
'2:47.000',1.07999878,-0.50003784,-0.17002197,29.50006104,0.52300571
'2:47.125',1.07999878,-0.49004730,-0.17002197,29.50006104,0.52300571
'2:47.250',1.07999878,-0.49004730,-0.17002197,29.50006104,0.52503867
'2:47.375',1.06995453,-0.50003784,-0.17002197,29.50006104,0.52300571
'2:47.500',1.06995453,-0.49004730,-0.17002197,29.50006104,0.52300571
'2:47.625',1.07999878,-0.49004730,-0.17002197,29.50006104,0.52300571
'2:47.750',1.06995453,-0.49004730,-0.17002197,29.50006104,0.51904678
'2:47.875',1.07999878,-0.50003784,-0.17002197,29.50006104,0.52300571
'2:48.000',1.06995453,-0.50003784,-0.17002197,29.50006104,0.51904678
'2:48.125',1.06995453,-0.50003784,-0.17002197,29.50006104,0.51904678
'2:48.250',1.06995453,-0.50003784,-0.17002197,29.50006104,0.51904678
'2:48.375',1.07999878,-0.49004730,-0.16001801,29.50006104,0.51904678
'2:48.500',1.06995453,-0.50003784,-0.17002197,29.50006104,0.51904678
'2:48.625',1.06995453,-0.50003784,-0.17002197,29.50006104,0.51904678
'2:48.750',1.05996399,-0.50003784,-0.17002197,29.50006104,0.51605084
'2:48.875',1.06995453,-0.50003784,-0.17002197,29.50006104,0.51605084
'2:49.000',1.07999878,-0.50003784,-0.17002197,29.50006104,0.51605084
'2:49.125',1.06995453,-0.49004730,-0.16001801,29.50006104,0.51605084
'2:49.250',1.06995453,-0.49004730,-0.17002197,29.50006104,0.51605084
'2:49.375',1.07999878,-0.50003784,-0.17002197,29.50006104,0.51605084
'2:49.500',1.06995453,-0.49004730,-0.17002197,29.50006104,0.51605084
'2:49.625',1.07999878,-0.49004730,-0.17002197,29.50006104,0.51605084
'2:49.750',1.06995453,-0.50003784,-0.17002197,29.50006104,0.51203842
'2:49.875',1.06995453,-0.50003784,-0.17002197,29.50006104,0.51401788
'2:50.000',1.06995453,-0.49004730,-0.17002197,29.50006104,0.51203842
'2:50.125',1.06995453,-0.49004730,-0.17002197,29.50006104,0.51203842
'2:50.250',1.06995453,-0.49004730,-0.17002197,29.50006104,0.51203842
'2:50.375',1.07999878,-0.49004730,-0.17002197,29.50006104,0.51000546
'2:50.500',1.07999878,-0.50003784,-0.17002197,29.50006104,0.51203842
'2:50.625',1.06995453,-0.49004730,-0.17002197,29.50006104,0.51000546
'2:50.750',1.06995453,-0.49004730,-0.17002197,29.50006104,0.51203842
'2:50.875',1.07999878,-0.50003784,-0.17002197,29.50006104,0.51000546
'2:51.000',1.06995453,-0.49004730,-0.17002197,29.50006104,0.51000546
'2:51.125',1.06995453,-0.49004730,-0.17002197,29.50006104,0.51000546
'2:51.250',1.06995453,-0.49004730,-0.17002197,29.50006104,0.51000546
'2:51.375',1.06995453,-0.49004730,-0.17002197,29.50006104,0.51000546
'2:51.500',1.06995453,-0.50003784,-0.17002197,29.50006104,0.50604654
'2:51.625',1.06995453,-0.49004730,-0.17002197,29.50006104,0.51000546
'2:51.750',1.06995453,-0.49004730,-0.17002197,29.50006104,0.50604654
'2:51.875',1.06995453,-0.50003784,-0.17002197,29.50006104,0.50604654
'2:52.000',1.06995453,-0.50003784,-0.18002594,29.50006104,0.51000546
'2:52.125',1.06995453,-0.49004730,-0.17002197,29.50006104,0.51000546
'2:52.250',1.06995453,-0.50003784,-0.17002197,29.50006104,0.50604654
'2:52.375',1.06995453,-0.49004730,-0.17002197,29.50006104,0.50604654
'2:52.500',1.06995453,-0.49004730,-0.17002197,29.50006104,0.50604654
'2:52.625',1.07999878,-0.49004730,-0.17002197,29.50006104,0.50604654
'2:52.750',1.07999878,-0.49004730,-0.17002197,29.50006104,0.50604654
'2:52.875',1.06995453,-0.49004730,-0.17002197,29.50006104,0.50604654
'2:53.000',1.06995453,-0.50003784,-0.17002197,29.50006104,0.50604654
'2:53.125',1.06995453,-0.50003784,-0.17002197,29.50006104,0.50604654
'2:53.250',1.06995453,-0.49004730,-0.17002197,29.50006104,0.50604654
'2:53.375',1.07999878,-0.50003784,-0.17002197,29.50006104,0.50604654
'2:53.500',1.06995453,-0.50003784,-0.17002197,29.50006104,0.50305060
'2:53.625',1.06995453,-0.50003784,-0.17002197,29.50006104,0.50203412
'2:53.750',1.06995453,-0.50003784,-0.17002197,29.50006104,0.50305060
'2:53.875',1.06995453,-0.50003784,-0.17002197,29.50006104,0.50604654
'2:54.000',1.06995453,-0.50003784,-0.18002594,29.50006104,0.50000116
'2:54.125',1.06995453,-0.50003784,-0.17002197,29.50006104,0.50305060
'2:54.250',1.07999878,-0.50003784,-0.17002197,29.50006104,0.50305060
'2:54.375',1.07999878,-0.50003784,-0.17002197,29.50006104,0.50000116
'2:54.500',1.06995453,-0.49004730,-0.17002197,29.50006104,0.50000116
'2:54.625',1.06995453,-0.49004730,-0.17002197,29.70006409,0.50000116
'2:54.750',1.06995453,-0.49004730,-0.17002197,29.50006104,0.50000116
'2:54.875',1.07999878,-0.49004730,-0.17002197,29.70006409,0.50000116
'2:55.000',1.06995453,-0.49004730,-0.17002197,29.50006104,0.50000116
'2:55.125',1.06995453,-0.50003784,-0.17002197,29.50006104,0.50000116
'2:55.250',1.06995453,-0.49004730,-0.17002197,29.70006409,0.50000116
'2:55.375',1.06995453,-0.49004730,-0.17002197,29.70006409,0.50000116
'2:55.500',1.07999878,-0.50003784,-0.17002197,29.70006409,0.50000116
'2:55.625',1.07999878,-0.50003784,-0.17002197,29.50006104,0.49700522
'2:55.750',1.06995453,-0.49004730,-0.17002197,29.50006104,0.49700522
'2:55.875',1.06995453,-0.49004730,-0.17002197,29.50006104,0.49700522
'2:56.000',1.06995453,-0.50003784,-0.17002197,29.50006104,0.49700522
'2:56.125',1.07999878,-0.50003784,-0.17002197,29.50006104,0.49700522
'2:56.250',1.06995453,-0.50003784,-0.17002197,29.70006409,0.49304630
'2:56.375',1.06995453,-0.49004730,-0.17002197,29.50006104,0.49700522
'2:56.500',1.06995453,-0.50003784,-0.17002197,29.50006104,0.49304630
'2:56.625',1.06995453,-0.50003784,-0.17002197,29.50006104,0.49304630
'2:56.750',1.07999878,-0.50003784,-0.17002197,29.50006104,0.49700522
'2:56.875',1.06995453,-0.50003784,-0.17002197,29.50006104,0.49304630
'2:57.000',1.06995453,-0.50003784,-0.17002197,29.50006104,0.49304630
'2:57.125',1.06995453,-0.50003784,-0.17002197,29.50006104,0.49304630
'2:57.250',1.07999878,-0.50003784,-0.17002197,29.50006104,0.49304630
'2:57.375',1.06995453,-0.50003784,-0.17002197,29.50006104,0.49304630
'2:57.500',1.06995453,-0.50003784,-0.17002197,29.50006104,0.49101334
'2:57.625',1.07999878,-0.50003784,-0.17002197,29.50006104,0.49101334
'2:57.750',1.07999878,-0.49004730,-0.17002197,29.50006104,0.49101334
'2:57.875',1.06995453,-0.49004730,-0.17002197,29.70006409,0.49101334
'2:58.000',1.07999878,-0.50003784,-0.17002197,29.70006409,0.49101334
'2:58.125',1.06995453,-0.50003784,-0.17002197,29.70006409,0.49101334
'2:58.250',1.06995453,-0.50003784,-0.17002197,29.50006104,0.49101334
'2:58.375',1.06995453,-0.50003784,-0.17002197,29.70006409,0.49101334
'2:58.500',1.06995453,-0.50003784,-0.17002197,29.70006409,0.49101334
'2:58.625',1.07999878,-0.50003784,-0.17002197,29.70006409,0.49101334
'2:58.750',1.06995453,-0.50003784,-0.17002197,29.50006104,0.49101334
'2:58.875',1.06995453,-0.50003784,-0.17002197,29.70006409,0.48700092
'2:59.000',1.06995453,-0.50003784,-0.17002197,29.70006409,0.48700092
'2:59.125',1.07999878,-0.50003784,-0.17002197,29.70006409,0.48700092
'2:59.250',1.06995453,-0.50003784,-0.17002197,29.50006104,0.49101334
'2:59.375',1.06995453,-0.50003784,-0.17002197,29.50006104,0.48700092
'2:59.500',1.06995453,-0.50003784,-0.17002197,29.70006409,0.48700092
'2:59.625',1.06995453,-0.50003784,-0.17002197,29.70006409,0.48700092
'2:59.750',1.06995453,-0.50003784,-0.17002197,29.50006104,0.48700092
'2:59.875',1.06995453,-0.50003784,-0.17002197,29.70006409,0.48700092
'3:00.000',1.06995453,-0.50003784,-0.17002197,29.50006104,0.48700092
'3:00.125',1.06995453,-0.50003784,-0.17002197,29.70006409,0.48700092
'3:00.250',1.06995453,-0.50003784,-0.17002197,29.70006409,0.48700092
'3:00.375',1.06995453,-0.49004730,-0.17002197,29.70006409,0.48700092
'3:00.500',1.06995453,-0.50003784,-0.17002197,29.70006409,0.48700092
'3:00.625',1.06995453,-0.50003784,-0.17002197,29.70006409,0.48700092
'3:00.750',1.06995453,-0.50003784,-0.17002197,29.70006409,0.48700092
'3:00.875',1.06995453,-0.50003784,-0.17002197,29.50006104,0.48700092
'3:01.000',1.05996399,-0.50003784,-0.18002594,29.70006409,0.48700092
'3:01.125',1.07999878,-0.50003784,-0.17002197,29.70006409,0.48700092
'3:01.250',1.06995453,-0.50003784,-0.17002197,29.70006409,0.48700092
'3:01.375',1.06995453,-0.50003784,-0.17002197,29.70006409,0.48700092
'3:01.500',1.07999878,-0.49004730,-0.17002197,29.70006409,0.48304199
'3:01.625',1.06995453,-0.50003784,-0.17002197,29.70006409,0.48304199
'3:01.750',1.06995453,-0.49004730,-0.17002197,29.70006409,0.48700092
'3:01.875',1.06995453,-0.50003784,-0.17002197,29.70006409,0.48400497
'3:02.000',1.06995453,-0.50003784,-0.17002197,29.70006409,0.48100903
'3:02.125',1.06995453,-0.50003784,-0.17002197,29.70006409,0.48100903
'3:02.250',1.06995453,-0.50003784,-0.17002197,29.70006409,0.48100903
'3:02.375',1.06995453,-0.50003784,-0.17002197,29.70006409,0.48100903
'3:02.500',1.06995453,-0.50003784,-0.17002197,29.70006409,0.48100903
'3:02.625',1.05996399,-0.50003784,-0.17002197,29.50006104,0.48100903
'3:02.750',1.06995453,-0.50003784,-0.17002197,29.70006409,0.48100903
'3:02.875',1.06995453,-0.50003784,-0.17002197,29.70006409,0.48100903
'3:03.000',1.06995453,-0.50003784,-0.17002197,29.70006409,0.48100903
'3:03.125',1.06995453,-0.50003784,-0.18002594,29.70006409,0.48100903
'3:03.250',1.06995453,-0.50003784,-0.17002197,29.70006409,0.48100903
'3:03.375',1.06995453,-0.50003784,-0.18002594,29.70006409,0.48100903
'3:03.500',1.06995453,-0.50003784,-0.17002197,29.70006409,0.48100903
'3:03.625',1.06995453,-0.50003784,-0.17002197,29.70006409,0.48100903
'3:03.750',1.07999878,-0.50003784,-0.18002594,29.70006409,0.48100903
'3:03.875',1.07999878,-0.49004730,-0.17002197,29.70006409,0.48100903
'3:04.000',1.06995453,-0.49004730,-0.17002197,29.70006409,0.48100903
'3:04.125',1.07999878,-0.49004730,-0.17002197,29.70006409,0.47801309
'3:04.250',1.06995453,-0.49004730,-0.17002197,29.70006409,0.47400067
'3:04.375',1.06995453,-0.50003784,-0.17002197,29.50006104,0.47400067
'3:04.500',1.06995453,-0.50003784,-0.17002197,29.70006409,0.47801309
'3:04.625',1.06995453,-0.49004730,-0.17002197,29.70006409,0.47400067
'3:04.750',1.06995453,-0.50003784,-0.17002197,29.70006409,0.47801309
'3:04.875',1.06995453,-0.49004730,-0.17002197,29.70006409,0.47400067
'3:05.000',1.07999878,-0.50003784,-0.17002197,29.70006409,0.47801309
'3:05.125',1.06995453,-0.49004730,-0.17002197,29.70006409,0.47400067
'3:05.250',1.06995453,-0.49004730,-0.17002197,29.70006409,0.47400067
'3:05.375',1.06995453,-0.49004730,-0.17002197,29.70006409,0.47400067
'3:05.500',1.06995453,-0.49004730,-0.17002197,29.70006409,0.47400067
'3:05.625',1.06995453,-0.50003784,-0.17002197,29.70006409,0.47400067
'3:05.750',1.06995453,-0.50003784,-0.17002197,29.70006409,0.47400067
'3:05.875',1.06995453,-0.49004730,-0.17002197,29.70006409,0.47400067
'3:06.000',1.06995453,-0.49004730,-0.17002197,29.70006409,0.47303769
'3:06.125',1.06995453,-0.50003784,-0.17002197,29.70006409,0.47202121
'3:06.250',1.06995453,-0.49004730,-0.17002197,29.70006409,0.47202121
'3:06.375',1.06995453,-0.49004730,-0.17002197,29.70006409,0.47202121
'3:06.500',1.06995453,-0.50003784,-0.17002197,29.70006409,0.46800879
'3:06.625',1.06995453,-0.49004730,-0.17002197,29.70006409,0.47202121
'3:06.750',1.05996399,-0.50003784,-0.17002197,29.70006409,0.47202121
'3:06.875',1.06995453,-0.49004730,-0.17002197,29.70006409,0.47202121
'3:07.000',1.07999878,-0.50003784,-0.17002197,29.70006409,0.46800879
'3:07.125',1.06995453,-0.50003784,-0.17002197,29.70006409,0.46800879
'3:07.250',1.06995453,-0.50003784,-0.17002197,29.70006409,0.46800879
'3:07.375',1.06995453,-0.50003784,-0.17002197,29.70006409,0.46800879
'3:07.500',1.06995453,-0.50003784,-0.17002197,29.70006409,0.46800879
'3:07.625',1.06995453,-0.50003784,-0.17002197,29.70006409,0.46800879
'3:07.750',1.06995453,-0.50003784,-0.17002197,29.70006409,0.46800879
'3:07.875',1.06995453,-0.50003784,-0.17002197,29.70006409,0.46800879
'3:08.000',1.06995453,-0.49004730,-0.17002197,29.70006409,0.46800879
'3:08.125',1.06995453,-0.49004730,-0.17002197,29.70006409,0.46800879
'3:08.250',1.07999878,-0.49004730,-0.17002197,29.70006409,0.46800879
'3:08.375',1.06995453,-0.50003784,-0.17002197,29.70006409,0.46800879
'3:08.500',1.06995453,-0.49004730,-0.17002197,29.70006409,0.46800879
'3:08.625',1.06995453,-0.49004730,-0.17002197,29.70006409,0.46800879
'3:08.750',1.07999878,-0.50003784,-0.17002197,29.70006409,0.46800879
'3:08.875',1.06995453,-0.49004730,-0.17002197,29.70006409,0.46800879
'3:09.000',1.06995453,-0.49004730,-0.17002197,29.70006409,0.46800879
'3:09.125',1.06995453,-0.50003784,-0.17002197,29.70006409,0.46800879
'3:09.250',1.06995453,-0.50003784,-0.17002197,29.70006409,0.46800879
'3:09.375',1.06995453,-0.49004730,-0.17002197,29.70006409,0.46800879
'3:09.500',1.07999878,-0.50003784,-0.17002197,29.70006409,0.46201691
'3:09.625',1.06995453,-0.49004730,-0.17002197,29.70006409,0.46501285
'3:09.750',1.06995453,-0.49004730,-0.17002197,29.70006409,0.46201691
'3:09.875',1.06995453,-0.49004730,-0.17002197,29.70006409,0.46201691
'3:10.000',1.06995453,-0.49004730,-0.17002197,29.70006409,0.46201691
'3:10.125',1.06995453,-0.50003784,-0.17002197,29.70006409,0.46201691
'3:10.250',1.06995453,-0.49004730,-0.17002197,29.70006409,0.46201691
'3:10.375',1.06995453,-0.50003784,-0.17002197,29.70006409,0.46303339
'3:10.500',1.07999878,-0.49004730,-0.17002197,29.70006409,0.46201691
'3:10.625',1.06995453,-0.49004730,-0.17002197,29.70006409,0.46201691
'3:10.750',1.07999878,-0.49004730,-0.17002197,29.70006409,0.46201691
'3:10.875',1.06995453,-0.49004730,-0.17002197,29.70006409,0.46201691
'3:11.000',1.06995453,-0.50003784,-0.17002197,29.70006409,0.46201691
'3:11.125',1.06995453,-0.50003784,-0.17002197,29.70006409,0.46201691
'3:11.250',1.06995453,-0.50003784,-0.17002197,29.70006409,0.46201691
'3:11.375',1.06995453,-0.49004730,-0.17002197,29.70006409,0.46201691
'3:11.500',1.07999878,-0.49004730,-0.17002197,29.70006409,0.46201691
'3:11.625',1.06995453,-0.49004730,-0.17002197,29.70006409,0.45602503
'3:11.750',1.06995453,-0.50003784,-0.17002197,29.90006714,0.45602503
'3:11.875',1.06995453,-0.49004730,-0.17002197,29.70006409,0.45602503
'3:12.000',1.07999878,-0.49004730,-0.17002197,29.70006409,0.45602503
'3:12.125',1.06995453,-0.49004730,-0.17002197,29.90006714,0.45602503
'3:12.250',1.07999878,-0.49004730,-0.17002197,29.70006409,0.45602503
'3:12.375',1.06995453,-0.49004730,-0.17002197,29.70006409,0.45602503
'3:12.500',1.07999878,-0.49004730,-0.17002197,29.70006409,0.45602503
'3:12.625',1.06995453,-0.49004730,-0.17002197,29.70006409,0.45602503
'3:12.750',1.06995453,-0.49004730,-0.17002197,29.70006409,0.45602503
'3:12.875',1.06995453,-0.49004730,-0.17002197,29.90006714,0.45602503
'3:13.000',1.06995453,-0.49004730,-0.17002197,29.90006714,0.45602503
'3:13.125',1.07999878,-0.49004730,-0.17002197,29.70006409,0.45602503
'3:13.250',1.06995453,-0.50003784,-0.17002197,29.70006409,0.45602503
'3:13.375',1.06995453,-0.49004730,-0.17002197,29.90006714,0.45302908
'3:13.500',1.07999878,-0.49004730,-0.17002197,29.70006409,0.45302908
'3:13.625',1.06995453,-0.49004730,-0.17002197,29.70006409,0.45302908
'3:13.750',1.06995453,-0.49004730,-0.17002197,29.70006409,0.45302908
'3:13.875',1.06995453,-0.49004730,-0.17002197,29.90006714,0.45003314
'3:14.000',1.06995453,-0.49004730,-0.17002197,29.70006409,0.45003314
'3:14.125',1.06995453,-0.50003784,-0.17002197,29.70006409,0.45302908
'3:14.250',1.06995453,-0.49004730,-0.17002197,29.90006714,0.45003314
'3:14.375',1.07999878,-0.49004730,-0.17002197,29.70006409,0.45003314
'3:14.500',1.06995453,-0.49004730,-0.17002197,29.90006714,0.45003314
'3:14.625',1.06995453,-0.49004730,-0.17002197,29.70006409,0.44703720
'3:14.750',1.06995453,-0.49004730,-0.17002197,29.70006409,0.44703720
'3:14.875',1.06995453,-0.49004730,-0.17002197,29.70006409,0.44703720
'3:15.000',1.07999878,-0.49004730,-0.17002197,29.70006409,0.44703720
'3:15.125',1.07999878,-0.49004730,-0.17002197,29.70006409,0.44703720
'3:15.250',1.07999878,-0.49004730,-0.17002197,29.70006409,0.44703720
'3:15.375',1.06995453,-0.49004730,-0.17002197,29.70006409,0.44703720
'3:15.500',1.06995453,-0.49004730,-0.17002197,29.70006409,0.44703720
'3:15.625',1.07999878,-0.49004730,-0.17002197,29.70006409,0.44703720
'3:15.750',1.06995453,-0.49004730,-0.17002197,29.70006409,0.44703720
'3:15.875',1.06995453,-0.49004730,-0.17002197,29.70006409,0.44404126
'3:16.000',1.06995453,-0.50003784,-0.17002197,29.90006714,0.44703720
'3:16.125',1.06995453,-0.49004730,-0.17002197,29.90006714,0.44404126
'3:16.250',1.06995453,-0.49004730,-0.17002197,29.70006409,0.44703720
'3:16.375',1.06995453,-0.50003784,-0.17002197,29.90006714,0.44404126
'3:16.500',1.06995453,-0.49004730,-0.17002197,29.70006409,0.44404126
'3:16.625',1.06995453,-0.49004730,-0.17002197,29.70006409,0.44404126
'3:16.750',1.06995453,-0.49004730,-0.17002197,29.90006714,0.44404126
'3:16.875',1.06995453,-0.49004730,-0.17002197,29.90006714,0.44404126
'3:17.000',1.06995453,-0.50003784,-0.17002197,29.90006714,0.44500424
'3:17.125',1.06995453,-0.49004730,-0.17002197,29.90006714,0.44404126
'3:17.250',1.06995453,-0.49004730,-0.17002197,29.90006714,0.44404126
'3:17.375',1.07999878,-0.49004730,-0.17002197,29.90006714,0.44404126
'3:17.500',1.06995453,-0.49004730,-0.17002197,29.70006409,0.44404126
'3:17.625',1.06995453,-0.49004730,-0.17002197,29.90006714,0.44404126
'3:17.750',1.07999878,-0.50003784,-0.18002594,29.70006409,0.44404126
'3:17.875',1.06995453,-0.50003784,-0.17002197,29.90006714,0.44404126
'3:18.000',1.07999878,-0.49004730,-0.18002594,29.90006714,0.43804938
'3:18.125',1.06995453,-0.49004730,-0.17002197,29.90006714,0.44104532
'3:18.250',1.07999878,-0.49004730,-0.17002197,29.90006714,0.43804938
'3:18.375',1.06995453,-0.49004730,-0.17002197,29.70006409,0.43804938
'3:18.500',1.07999878,-0.49004730,-0.18002594,29.90006714,0.43804938
'3:18.625',1.06995453,-0.49004730,-0.18002594,30.10007019,0.43804938
'3:18.750',1.06995453,-0.49004730,-0.18002594,30.10007019,0.43804938
'3:18.875',1.06995453,-0.50003784,-0.18002594,30.10007019,0.43804938
'3:19.000',1.05996399,-0.50003784,-0.17002197,29.90006714,0.43505344
'3:19.125',1.06995453,-0.49004730,-0.17002197,30.10007019,0.43804938
'3:19.250',1.05996399,-0.50003784,-0.18002594,29.90006714,0.43601642
'3:19.375',1.07999878,-0.50003784,-0.17002197,29.90006714,0.43901236
'3:19.500',1.06995453,-0.50003784,-0.17002197,29.90006714,0.43403696
'3:19.625',1.06995453,-0.49004730,-0.17002197,29.90006714,0.43901236
'3:19.750',1.07999878,-0.49004730,-0.17002197,29.70006409,0.43302048
'3:19.875',1.06995453,-0.49004730,-0.17002197,29.90006714,0.43901236
'3:20.000',1.06995453,-0.49004730,-0.17002197,29.70006409,0.43505344
'3:20.125',1.06995453,-0.49004730,-0.17002197,29.90006714,0.43403696
'3:20.250',1.06995453,-0.49004730,-0.17002197,29.90006714,0.43302048
'3:20.375',1.06995453,-0.49004730,-0.17002197,29.90006714,0.43901236
'3:20.500',1.06995453,-0.49004730,-0.17002197,29.90006714,0.43601642
'3:20.625',1.06995453,-0.49004730,-0.17002197,29.90006714,0.43804938
'3:20.750',1.06995453,-0.49004730,-0.17002197,29.90006714,0.43804938
'3:20.875',1.06995453,-0.49004730,-0.17002197,29.90006714,0.43200400
'3:21.000',1.07999878,-0.49004730,-0.17002197,29.90006714,0.43200400
'3:21.125',1.06995453,-0.49004730,-0.17002197,29.90006714,0.43302048
'3:21.250',1.06995453,-0.49004730,-0.17002197,29.90006714,0.43200400
'3:21.375',1.06995453,-0.49004730,-0.17002197,29.90006714,0.43200400
'3:21.500',1.06995453,-0.49004730,-0.17002197,29.90006714,0.43302048
'3:21.625',1.06995453,-0.49004730,-0.17002197,29.90006714,0.43302048
'3:21.750',1.07999878,-0.49004730,-0.17002197,29.90006714,0.43200400
'3:21.875',1.07999878,-0.49004730,-0.17002197,29.90006714,0.43002454
'3:22.000',1.06995453,-0.49004730,-0.17002197,29.90006714,0.43302048
'3:22.125',1.06995453,-0.49004730,-0.18002594,29.90006714,0.42900806
'3:22.250',1.06995453,-0.49004730,-0.17002197,29.90006714,0.42900806
'3:22.375',1.06995453,-0.49004730,-0.17002197,29.90006714,0.42900806
'3:22.500',1.06995453,-0.49004730,-0.17002197,29.90006714,0.42900806
'3:22.625',1.06995453,-0.49004730,-0.17002197,29.90006714,0.42900806
'3:22.750',1.07999878,-0.49004730,-0.17002197,29.90006714,0.42900806
'3:22.875',1.07999878,-0.49004730,-0.17002197,29.90006714,0.43002454
'3:23.000',1.06995453,-0.49004730,-0.17002197,29.90006714,0.42900806
'3:23.125',1.06995453,-0.50003784,-0.17002197,29.90006714,0.42900806
'3:23.250',1.06995453,-0.49004730,-0.17002197,29.90006714,0.42601212
'3:23.375',1.06995453,-0.49004730,-0.17002197,29.90006714,0.42601212
'3:23.500',1.07999878,-0.49004730,-0.17002197,29.90006714,0.42900806
'3:23.625',1.06995453,-0.49004730,-0.17002197,29.90006714,0.42601212
'3:23.750',1.07999878,-0.49004730,-0.17002197,29.90006714,0.42601212
'3:23.875',1.06995453,-0.49004730,-0.17002197,29.90006714,0.42601212
'3:24.000',1.06995453,-0.49004730,-0.17002197,29.90006714,0.42601212
'3:24.125',1.06995453,-0.49004730,-0.17002197,29.90006714,0.42601212
'3:24.250',1.06995453,-0.49004730,-0.17002197,29.90006714,0.42601212
'3:24.375',1.06995453,-0.49004730,-0.17002197,29.90006714,0.42601212
'3:24.500',1.06995453,-0.49004730,-0.17002197,29.90006714,0.42702860
'3:24.625',1.07999878,-0.49004730,-0.17002197,29.90006714,0.42205319
'3:24.750',1.05996399,-0.49004730,-0.17002197,29.90006714,0.42601212
'3:24.875',1.07999878,-0.49004730,-0.17002197,29.90006714,0.42601212
'3:25.000',1.07999878,-0.49004730,-0.17002197,29.90006714,0.42601212
'3:25.125',1.06995453,-0.49004730,-0.17002197,29.90006714,0.42702860
'3:25.250',1.06995453,-0.49004730,-0.17002197,29.90006714,0.42301617
'3:25.375',1.06995453,-0.49004730,-0.17002197,29.90006714,0.42103671
'3:25.500',1.07999878,-0.49004730,-0.17002197,29.90006714,0.42002023
'3:25.625',1.06995453,-0.49004730,-0.17002197,29.90006714,0.42205319
'3:25.750',1.06995453,-0.49004730,-0.17002197,29.90006714,0.42103671
'3:25.875',1.06995453,-0.49004730,-0.17002197,29.90006714,0.42103671
'3:26.000',1.06995453,-0.49004730,-0.17002197,29.90006714,0.42002023
'3:26.125',1.06995453,-0.49004730,-0.17002197,29.90006714,0.42002023
'3:26.250',1.06995453,-0.49004730,-0.17002197,29.90006714,0.42002023
'3:26.375',1.06995453,-0.49004730,-0.17002197,29.90006714,0.42002023
'3:26.500',1.06995453,-0.49004730,-0.17002197,29.90006714,0.42103671
'3:26.625',1.06995453,-0.49004730,-0.17002197,29.90006714,0.42002023
'3:26.750',1.06995453,-0.49004730,-0.17002197,29.90006714,0.42002023
'3:26.875',1.06995453,-0.49004730,-0.17002197,29.90006714,0.42002023
'3:27.000',1.06995453,-0.49004730,-0.17002197,29.90006714,0.41804077
'3:27.125',1.06995453,-0.49004730,-0.17002197,29.90006714,0.41702429
'3:27.250',1.06995453,-0.49004730,-0.17002197,29.90006714,0.41702429
'3:27.375',1.06995453,-0.49004730,-0.17002197,29.90006714,0.42002023
'3:27.500',1.07999878,-0.49004730,-0.17002197,29.90006714,0.41702429
'3:27.625',1.06995453,-0.49004730,-0.17002197,29.90006714,0.41402835
'3:27.750',1.06995453,-0.49004730,-0.17002197,29.90006714,0.41402835
'3:27.875',1.06995453,-0.49004730,-0.17002197,29.90006714,0.41402835
'3:28.000',1.05996399,-0.49004730,-0.17002197,29.90006714,0.41402835
'3:28.125',1.06995453,-0.49004730,-0.17002197,29.90006714,0.41402835
'3:28.250',1.06995453,-0.49004730,-0.17002197,29.90006714,0.41402835
'3:28.375',1.06995453,-0.50003784,-0.18002594,29.90006714,0.41504483
'3:28.500',1.06995453,-0.49004730,-0.17002197,29.90006714,0.41402835
'3:28.625',1.07999878,-0.50003784,-0.17002197,29.90006714,0.41402835
'3:28.750',1.06995453,-0.49004730,-0.17002197,29.90006714,0.41402835
'3:28.875',1.07999878,-0.49004730,-0.18002594,29.90006714,0.41103241
'3:29.000',1.06995453,-0.50003784,-0.18002594,29.90006714,0.41103241
'3:29.125',1.06995453,-0.49004730,-0.17002197,29.90006714,0.41103241
'3:29.250',1.06995453,-0.49004730,-0.17002197,29.90006714,0.41103241
'3:29.375',1.06995453,-0.50003784,-0.17002197,29.90006714,0.41204889
'3:29.500',1.06995453,-0.50003784,-0.17002197,29.90006714,0.41103241
'3:29.625',1.07999878,-0.49004730,-0.17002197,29.90006714,0.41103241
'3:29.750',1.06995453,-0.49004730,-0.17002197,29.90006714,0.40803647
'3:29.875',1.05996399,-0.49004730,-0.17002197,29.90006714,0.40803647
'3:30.000',1.06995453,-0.49004730,-0.17002197,29.90006714,0.41204889
'3:30.125',1.07999878,-0.50003784,-0.17002197,29.90006714,0.41103241
'3:30.250',1.06995453,-0.49004730,-0.17002197,29.90006714,0.40803647
'3:30.375',1.06995453,-0.49004730,-0.17002197,29.90006714,0.40803647
'3:30.500',1.06995453,-0.49004730,-0.17002197,29.90006714,0.40803647
'3:30.625',1.06995453,-0.49004730,-0.17002197,29.90006714,0.40803647
'3:30.750',1.06995453,-0.49004730,-0.17002197,29.90006714,0.40803647
'3:30.875',1.07999878,-0.49004730,-0.17002197,29.90006714,0.40905295
'3:31.000',1.07999878,-0.49004730,-0.17002197,29.90006714,0.40803647
'3:31.125',1.06995453,-0.49004730,-0.17002197,29.90006714,0.40803647
'3:31.250',1.06995453,-0.49004730,-0.17002197,29.90006714,0.40803647
'3:31.375',1.06995453,-0.49004730,-0.17002197,29.90006714,0.40905295
'3:31.500',1.06995453,-0.49004730,-0.17002197,29.90006714,0.40803647
'3:31.625',1.06995453,-0.49004730,-0.17002197,29.90006714,0.40803647
'3:31.750',1.06995453,-0.49004730,-0.17002197,29.90006714,0.40905295
'3:31.875',1.06995453,-0.49004730,-0.17002197,29.90006714,0.40905295
'3:32.000',1.06995453,-0.49004730,-0.17002197,29.90006714,0.40803647
'3:32.125',1.06995453,-0.49004730,-0.17002197,29.90006714,0.40905295
'3:32.250',1.07999878,-0.49004730,-0.18002594,29.90006714,0.40803647
'3:32.375',1.06995453,-0.49004730,-0.17002197,29.90006714,0.40803647
'3:32.500',1.06995453,-0.49004730,-0.18002594,29.90006714,0.40803647
'3:32.625',1.06995453,-0.49004730,-0.17002197,29.90006714,0.40803647
'3:32.750',1.06995453,-0.49004730,-0.17002197,29.90006714,0.40803647
'3:32.875',1.07999878,-0.49004730,-0.17002197,29.90006714,0.40803647
'3:33.000',1.06995453,-0.49004730,-0.17002197,29.90006714,0.40402405
'3:33.125',1.06995453,-0.49004730,-0.17002197,29.90006714,0.40905295
'3:33.250',1.07999878,-0.49004730,-0.17002197,29.90006714,0.40803647
'3:33.375',1.06995453,-0.49004730,-0.17002197,29.90006714,0.40402405
'3:33.500',1.06995453,-0.48000000,-0.17002197,29.90006714,0.40402405
'3:33.625',1.07999878,-0.49004730,-0.17002197,30.10007019,0.40300757
'3:33.750',1.06995453,-0.49004730,-0.17002197,29.90006714,0.40402405
'3:33.875',1.06995453,-0.49004730,-0.17002197,29.90006714,0.40300757
'3:34.000',1.06995453,-0.49004730,-0.17002197,29.90006714,0.40204459
'3:34.125',1.07999878,-0.49004730,-0.17002197,29.90006714,0.40300757
'3:34.250',1.06995453,-0.49004730,-0.17002197,29.90006714,0.40300757
'3:34.375',1.06995453,-0.50003784,-0.17002197,29.90006714,0.40204459
'3:34.500',1.06995453,-0.49004730,-0.17002197,29.90006714,0.40204459
'3:34.625',1.06995453,-0.50003784,-0.17002197,29.90006714,0.40204459
'3:34.750',1.06995453,-0.50003784,-0.18002594,29.90006714,0.40300757
'3:34.875',1.06995453,-0.50003784,-0.17002197,29.90006714,0.40300757
'3:35.000',1.06995453,-0.49004730,-0.17002197,30.10007019,0.40204459
'3:35.125',1.06995453,-0.49004730,-0.17002197,29.90006714,0.40204459
'3:35.250',1.06995453,-0.49004730,-0.17002197,29.90006714,0.40300757
'3:35.375',1.06995453,-0.50003784,-0.17002197,30.10007019,0.40300757
'3:35.500',1.06995453,-0.49004730,-0.17002197,29.90006714,0.40204459
'3:35.625',1.06995453,-0.49004730,-0.17002197,29.90006714,0.40204459
'3:35.750',1.06995453,-0.49004730,-0.17002197,29.90006714,0.40204459
'3:35.875',1.06995453,-0.49004730,-0.17002197,29.90006714,0.40204459
'3:36.000',1.06995453,-0.49004730,-0.17002197,29.90006714,0.40204459
'3:36.125',1.06995453,-0.49004730,-0.17002197,29.90006714,0.40204459
'3:36.250',1.06995453,-0.50003784,-0.17002197,29.90006714,0.40204459
'3:36.375',1.06995453,-0.49004730,-0.17002197,29.90006714,0.40204459
'3:36.500',1.06995453,-0.49004730,-0.17002197,30.10007019,0.40204459
'3:36.625',1.06995453,-0.49004730,-0.17002197,29.90006714,0.40204459
'3:36.750',1.06995453,-0.49004730,-0.17002197,29.90006714,0.40204459
'3:36.875',1.06995453,-0.50003784,-0.17002197,29.90006714,0.40001163
'3:37.000',1.06995453,-0.49004730,-0.17002197,29.90006714,0.40001163
'3:37.125',1.06995453,-0.49004730,-0.18002594,29.90006714,0.39701569
'3:37.250',1.06995453,-0.49004730,-0.17002197,29.90006714,0.40001163
'3:37.375',1.07999878,-0.49004730,-0.17002197,30.10007019,0.39605271
