Elapsed time,ax,ay,az,temp,EDA
'0:00.125',-0.79996750,-0.23000717,0.01999573,27.90007019,0.23901357
'0:00.250',-0.79996750,-0.21002106,0.01999573,28.10002747,0.23901357
'0:00.375',-0.80997177,-0.23000717,0.01999573,27.90007019,0.23801698
'0:00.500',-0.80997177,-0.22003265,0.00000000,27.90007019,0.23901357
'0:00.625',-0.80997177,-0.23000717,0.00999786,27.90007019,0.24200331
'0:00.750',-0.79996750,-0.23000717,0.00000000,27.90007019,0.23901357
'0:00.875',-0.79996750,-0.22003265,0.00000000,27.90007019,0.23901357
'0:01.000',-0.80997177,-0.22003265,0.00000000,27.90007019,0.24200331
'0:01.125',-0.80997177,-0.22003265,0.00000000,27.90007019,0.24100673
'0:01.250',-0.79996750,-0.22003265,0.00000000,28.10002747,0.24200331
'0:01.375',-0.79996750,-0.22003265,0.00000000,27.90007019,0.24402969
'0:01.500',-0.80997177,-0.22003265,0.00000000,27.90007019,0.24303311
'0:01.625',-0.79996750,-0.22003265,0.00000000,27.90007019,0.24402969
'0:01.750',-0.78999725,-0.23000717,0.00999786,27.90007019,0.24602286
'0:01.875',-0.79996750,-0.23000717,0.00000000,27.90007019,0.24402969
'0:02.000',-0.79996750,-0.23000717,0.00999786,27.90007019,0.24701944
'0:02.125',-0.79996750,-0.23000717,0.00000000,27.90007019,0.24402969
'0:02.250',-0.79996750,-0.24001877,0.00999786,27.90007019,0.24701944
'0:02.375',-0.79996750,-0.23000717,0.00999786,27.90007019,0.24402969
'0:02.500',-0.79996750,-0.22003265,0.00999786,27.90007019,0.24602286
'0:02.625',-0.79996750,-0.24001877,0.00000000,27.90007019,0.24701944
'0:02.750',-0.79996750,-0.24001877,0.00999786,27.90007019,0.24701944
'0:02.875',-0.79996750,-0.24001877,0.00999786,27.90007019,0.24701944
'0:03.000',-0.78999725,-0.23000717,0.00999786,27.90007019,0.24602286
'0:03.125',-0.79996750,-0.24001877,0.00999786,27.90007019,0.24701944
'0:03.250',-0.79996750,-0.23000717,0.00999786,27.90007019,0.24701944
'0:03.375',-0.78999725,-0.24001877,0.00999786,28.10002747,0.24701944
'0:03.500',-0.79996750,-0.23000717,0.00000000,28.10002747,0.24701944
'0:03.625',-0.79996750,-0.23000717,0.00999786,28.10002747,0.24402969
'0:03.750',-0.79996750,-0.23000717,0.00000000,27.90007019,0.24701944
'0:03.875',-0.78999725,-0.24001877,0.00999786,28.10002747,0.24701944
'0:04.000',-0.79996750,-0.23000717,0.00000000,27.90007019,0.24701944
'0:04.125',-0.79996750,-0.22003265,0.00000000,28.10002747,0.24701944
'0:04.250',-0.79996750,-0.23000717,0.00000000,27.90007019,0.24602286
'0:04.375',-0.79996750,-0.25003037,0.00000000,27.90007019,0.24602286
'0:04.500',-0.79996750,-0.24001877,0.00999786,28.10002747,0.24701944
'0:04.625',-0.79996750,-0.23000717,0.00000000,28.10002747,0.24701944
'0:04.750',-0.79996750,-0.24001877,0.00000000,28.10002747,0.24701944
'0:04.875',-0.80997177,-0.24001877,0.00000000,27.90007019,0.24402969
'0:05.000',-0.80997177,-0.23000717,0.00000000,27.90007019,0.24701944
'0:05.125',-0.79996750,-0.23000717,0.00000000,27.90007019,0.24701944
'0:05.250',-0.79996750,-0.22003265,0.00000000,28.10002747,0.24701944
'0:05.375',-0.79996750,-0.23000717,0.00000000,28.10002747,0.24701944
'0:05.500',-0.79996750,-0.24001877,0.00000000,28.10002747,0.24701944
'0:05.625',-0.79996750,-0.23000717,0.00000000,28.10002747,0.24701944
'0:05.750',-0.79996750,-0.23000717,0.00000000,28.10002747,0.24701944
'0:05.875',-0.79996750,-0.23000717,0.01999573,28.10002747,0.24701944
'0:06.000',-0.77999298,-0.23000717,0.00000000,28.10002747,0.24901260
'0:06.125',-0.77999298,-0.25003037,0.00000000,28.10002747,0.24701944
'0:06.250',-0.80997177,-0.23000717,0.00000000,28.10002747,0.24701944
'0:06.375',-0.79996750,-0.25003037,0.00000000,28.10002747,0.24701944
'0:06.500',-0.79996750,-0.25003037,0.00000000,28.10002747,0.24701944
'0:06.625',-0.76998871,-0.28002808,0.00000000,28.10002747,0.24701944
'0:06.750',-0.80997177,-0.24001877,0.00000000,28.10002747,0.24701944
'0:06.875',-0.78999725,-0.26000488,0.00000000,28.10002747,0.24701944
'0:07.000',-0.78999725,-0.25003037,0.00000000,28.10002747,0.24701944
'0:07.125',-0.77999298,-0.27001648,0.00000000,28.10002747,0.24701944
'0:07.250',-0.79996750,-0.27001648,0.00999786,28.10002747,0.24701944
'0:07.375',-0.79996750,-0.26000488,0.00000000,28.10002747,0.24701944
'0:07.500',-0.79996750,-0.25003037,0.00000000,28.10002747,0.24602286
'0:07.625',-0.79996750,-0.27001648,0.00999786,28.10002747,0.24701944
'0:07.750',-0.79996750,-0.26000488,0.00000000,28.10002747,0.24602286
'0:07.875',-0.78999725,-0.26000488,0.00000000,28.10002747,0.24701944
'0:08.000',-0.78999725,-0.26000488,0.00000000,28.10002747,0.24701944
'0:08.125',-0.80997177,-0.24001877,0.00000000,28.10002747,0.24402969
'0:08.250',-0.77999298,-0.29000259,0.00000000,28.10002747,0.24402969
'0:08.375',-0.76998871,-0.24001877,-0.02003739,28.10002747,0.24100673
'0:08.500',-0.79996750,-0.23000717,0.05998718,28.10002747,0.23901357
'0:08.625',-0.83998459,-0.22003265,0.02999359,28.10002747,0.23702040
'0:08.750',-0.75998444,-0.31002579,-0.02003739,28.10002747,0.23702040
'0:08.875',-0.71996735,-0.31002579,0.05998718,28.10002747,0.23901357
'0:09.000',-0.84998886,-0.25003037,0.03999145,28.10002747,0.24200331
'0:09.125',-0.76998871,-0.31002579,0.01999573,28.10002747,0.24402969
'0:09.250',-0.78999725,-0.26000488,-0.01003952,28.10002747,0.24701944
'0:09.375',-0.79996750,-0.27001648,0.01999573,28.10002747,0.24701944
'0:09.500',-0.76998871,-0.26000488,0.00999786,28.10002747,0.24701944
'0:09.625',-0.76998871,-0.28002808,0.03999145,28.10002747,0.24701944
'0:09.750',-0.80997177,-0.15002564,0.02999359,28.10002747,0.24901260
'0:09.875',-0.79996750,-0.22003265,0.00999786,28.10002747,0.25100577
'0:10.000',-0.80997177,-0.20000946,0.00999786,28.10002747,0.25100577
'0:10.125',-0.79996750,-0.21002106,0.03999145,28.10002747,0.25100577
'0:10.250',-0.80997177,-0.20000946,0.01999573,28.10002747,0.25100577
'0:10.375',-0.80997177,-0.21002106,0.00000000,28.10002747,0.25200235
'0:10.500',-0.80997177,-0.20000946,0.00000000,28.10002747,0.25200235
'0:10.625',-0.80997177,-0.21002106,0.01999573,28.10002747,0.25200235
'0:10.750',-0.79996750,-0.20000946,0.00000000,28.10002747,0.25200235
'0:10.875',-0.79996750,-0.19003494,0.00000000,28.10002747,0.24901260
'0:11.000',-0.80997177,-0.21002106,0.00000000,28.10002747,0.24901260
'0:11.125',-0.79996750,-0.19003494,0.00999786,28.30006409,0.24901260
'0:11.250',-0.80997177,-0.20000946,0.00999786,28.10002747,0.25200235
'0:11.375',-0.80997177,-0.19003494,0.00000000,28.10002747,0.24901260
'0:11.500',-0.81997604,-0.20000946,0.00000000,28.10002747,0.24801602
'0:11.625',-0.80997177,-0.20000946,0.00000000,28.30006409,0.24901260
'0:11.750',-0.79996750,-0.19003494,0.00999786,28.10002747,0.24901260
'0:11.875',-0.80997177,-0.20000946,0.00000000,28.10002747,0.24901260
'0:12.000',-0.79996750,-0.20000946,0.00000000,28.10002747,0.24901260
'0:12.125',-0.79996750,-0.20000946,0.00999786,28.30006409,0.24901260
'0:12.250',-0.80997177,-0.20000946,0.00999786,28.30006409,0.24901260
'0:12.375',-0.79996750,-0.20000946,0.00000000,28.30006409,0.24901260
'0:12.500',-0.79996750,-0.20000946,0.00000000,28.30006409,0.24901260
'0:12.625',-0.80997177,-0.20000946,0.00000000,28.30006409,0.24901260
'0:12.750',-0.79996750,-0.19003494,0.00999786,28.10002747,0.25100577
'0:12.875',-0.80997177,-0.19003494,0.00999786,28.10002747,0.24901260
'0:13.000',-0.81997604,-0.19003494,0.00000000,28.10002747,0.24901260
'0:13.125',-0.79996750,-0.20000946,0.00999786,28.10002747,0.24901260
'0:13.250',-0.80997177,-0.19003494,0.00999786,28.10002747,0.24901260
'0:13.375',-0.81997604,-0.19003494,0.00999786,28.10002747,0.24901260
'0:13.500',-0.80997177,-0.20000946,0.00999786,28.30006409,0.24901260
'0:13.625',-0.80997177,-0.19003494,0.00999786,28.30006409,0.24901260
'0:13.750',-0.80997177,-0.20000946,0.00999786,28.30006409,0.24901260
'0:13.875',-0.80997177,-0.20000946,0.00999786,28.10002747,0.24901260
'0:14.000',-0.79996750,-0.19003494,0.00000000,28.30006409,0.24901260
'0:14.125',-0.80997177,-0.19003494,0.00000000,28.10002747,0.24901260
'0:14.250',-0.79996750,-0.19003494,0.00999786,28.30006409,0.24901260
'0:14.375',-0.80997177,-0.19003494,0.00999786,28.30006409,0.24901260
'0:14.500',-0.80997177,-0.19003494,0.00999786,28.30006409,0.25200235
'0:14.625',-0.80997177,-0.18002335,0.00999786,28.30006409,0.24801602
'0:14.750',-0.79996750,-0.19003494,0.00999786,28.30006409,0.25200235
'0:14.875',-0.80997177,-0.19003494,0.00000000,28.30006409,0.24901260
'0:15.000',-0.80997177,-0.19003494,0.00999786,28.30006409,0.24901260
'0:15.125',-0.80997177,-0.19003494,0.00999786,28.30006409,0.25200235
'0:15.250',-0.79996750,-0.20000946,0.00999786,28.30006409,0.24901260
'0:15.375',-0.80997177,-0.19003494,0.00999786,28.30006409,0.25100577
'0:15.500',-0.79996750,-0.19003494,0.00000000,28.30006409,0.24901260
'0:15.625',-0.80997177,-0.19003494,0.00999786,28.30006409,0.24901260
'0:15.750',-0.80997177,-0.20000946,0.00999786,28.30006409,0.24901260
'0:15.875',-0.79996750,-0.21002106,0.00999786,28.30006409,0.25200235
'0:16.000',-0.80997177,-0.20000946,0.00999786,28.30006409,0.24901260
'0:16.125',-0.79996750,-0.20000946,0.00999786,28.30006409,0.25200235
'0:16.250',-0.79996750,-0.20000946,0.00999786,28.30006409,0.24901260
'0:16.375',-0.80997177,-0.21002106,0.00999786,28.30006409,0.25200235
'0:16.500',-0.79996750,-0.20000946,0.00999786,28.30006409,0.25200235
'0:16.625',-0.79996750,-0.21002106,0.00999786,28.30006409,0.25200235
'0:16.750',-0.80997177,-0.21002106,0.00999786,28.30006409,0.25200235
'0:16.875',-0.80997177,-0.20000946,0.00999786,28.30006409,0.25200235
'0:17.000',-0.80997177,-0.20000946,0.00999786,28.30006409,0.25402873
'0:17.125',-0.79996750,-0.20000946,0.00999786,28.30006409,0.25901164
'0:17.250',-0.80997177,-0.20000946,0.00000000,28.30006409,0.26402777
'0:17.375',-0.79996750,-0.19003494,0.00999786,28.30006409,0.26100481
'0:17.500',-0.80997177,-0.19003494,0.00999786,28.30006409,0.26402777
'0:17.625',-0.80997177,-0.20000946,0.00999786,28.30006409,0.26100481
'0:17.750',-0.80997177,-0.19003494,0.00999786,28.30006409,0.25901164
'0:17.875',-0.80997177,-0.19003494,0.00999786,28.30006409,0.25901164
'0:18.000',-0.80997177,-0.18002335,0.00999786,28.30006409,0.25901164
'0:18.125',-0.79996750,-0.18002335,0.00999786,28.30006409,0.25901164
'0:18.250',-0.80997177,-0.18002335,0.00999786,28.30006409,0.25901164
'0:18.375',-0.80997177,-0.19003494,0.00999786,28.30006409,0.25901164
'0:18.500',-0.80997177,-0.19003494,0.00999786,28.30006409,0.25901164
'0:18.625',-0.80997177,-0.18002335,0.00999786,28.30006409,0.25901164
'0:18.750',-0.80997177,-0.18002335,0.00999786,28.30006409,0.25901164
'0:18.875',-0.79996750,-0.19003494,0.00999786,28.30006409,0.25901164
'0:19.000',-0.79996750,-0.20000946,0.00999786,28.30006409,0.25901164
'0:19.125',-0.79996750,-0.19003494,0.00999786,28.30006409,0.25901164
'0:19.250',-0.80997177,-0.19003494,0.00999786,28.30006409,0.25602190
'0:19.375',-0.80997177,-0.20000946,0.00999786,28.30006409,0.25901164
'0:19.500',-0.80997177,-0.20000946,0.00999786,28.30006409,0.25602190
'0:19.625',-0.80997177,-0.20000946,0.00999786,28.30006409,0.25701848
'0:19.750',-0.80997177,-0.20000946,0.00999786,28.30006409,0.25602190
'0:19.875',-0.80997177,-0.20000946,0.01999573,28.30006409,0.25701848
'0:20.000',-0.80997177,-0.20000946,0.00999786,28.30006409,0.25402873
'0:20.125',-0.79996750,-0.20000946,0.00999786,28.30006409,0.25901164
'0:20.250',-0.80997177,-0.21002106,0.00999786,28.30006409,0.25402873
'0:20.375',-0.79996750,-0.20000946,0.01999573,28.30006409,0.25402873
'0:20.500',-0.79996750,-0.20000946,0.01999573,28.30006409,0.25402873
'0:20.625',-0.79996750,-0.21002106,0.00999786,28.30006409,0.25701848
'0:20.750',-0.80997177,-0.20000946,0.01999573,28.30006409,0.25701848
'0:20.875',-0.80997177,-0.20000946,0.00999786,28.30006409,0.25602190
'0:21.000',-0.79996750,-0.20000946,0.00999786,28.30006409,0.25901164
'0:21.125',-0.80997177,-0.20000946,0.00999786,28.30006409,0.25701848
'0:21.250',-0.80997177,-0.21002106,0.00999786,28.30006409,0.25701848
'0:21.375',-0.79996750,-0.19003494,0.00999786,28.30006409,0.25901164
'0:21.500',-0.80997177,-0.19003494,0.00999786,28.30006409,0.25901164
'0:21.625',-0.79996750,-0.19003494,0.00999786,28.30006409,0.25602190
'0:21.750',-0.80997177,-0.19003494,0.00999786,28.30006409,0.25901164
'0:21.875',-0.80997177,-0.20000946,0.00999786,28.30006409,0.25901164
'0:22.000',-0.80997177,-0.19003494,0.00999786,28.30006409,0.25901164
'0:22.125',-0.80997177,-0.19003494,0.00999786,28.30006409,0.25701848
'0:22.250',-0.81997604,-0.20000946,0.00999786,28.30006409,0.25602190
'0:22.375',-0.80997177,-0.19003494,0.00999786,28.30006409,0.25901164
'0:22.500',-0.79996750,-0.20000946,0.00999786,28.30006409,0.25701848
'0:22.625',-0.80997177,-0.20000946,0.00999786,28.30006409,0.25602190
'0:22.750',-0.79996750,-0.19003494,0.00999786,28.30006409,0.25901164
'0:22.875',-0.80997177,-0.20000946,0.01999573,28.30006409,0.25402873
'0:23.000',-0.80997177,-0.20000946,0.01999573,28.30006409,0.25402873
'0:23.125',-0.80997177,-0.20000946,0.01999573,28.30006409,0.25701848
'0:23.250',-0.79996750,-0.20000946,0.01999573,28.30006409,0.25901164
'0:23.375',-0.80997177,-0.20000946,0.01999573,28.30006409,0.25901164
'0:23.500',-0.80997177,-0.20000946,0.01999573,28.30006409,0.25901164
'0:23.625',-0.79996750,-0.20000946,0.00999786,28.30006409,0.25901164
'0:23.750',-0.80997177,-0.20000946,0.01999573,28.30006409,0.25901164
'0:23.875',-0.80997177,-0.20000946,0.01999573,28.30006409,0.25701848
'0:24.000',-0.80997177,-0.20000946,0.01999573,28.30006409,0.25901164
'0:24.125',-0.80997177,-0.20000946,0.01999573,28.30006409,0.25901164
'0:24.250',-0.80997177,-0.21002106,0.00999786,28.30006409,0.25901164
'0:24.375',-0.79996750,-0.20000946,0.00999786,28.30006409,0.25701848
'0:24.500',-0.79996750,-0.20000946,0.00999786,28.30006409,0.25901164
'0:24.625',-0.80997177,-0.19003494,0.01999573,28.30006409,0.25901164
'0:24.750',-0.80997177,-0.20000946,0.00999786,28.50002136,0.25602190
'0:24.875',-0.79996750,-0.20000946,0.00999786,28.30006409,0.25901164
'0:25.000',-0.80997177,-0.19003494,0.00999786,28.50002136,0.25901164
'0:25.125',-0.80997177,-0.19003494,0.00999786,28.50002136,0.25901164
'0:25.250',-0.79996750,-0.19003494,0.00999786,28.50002136,0.25901164
'0:25.375',-0.80997177,-0.19003494,0.00999786,28.30006409,0.25901164
'0:25.500',-0.80997177,-0.19003494,0.01999573,28.50002136,0.25901164
'0:25.625',-0.79996750,-0.19003494,0.01999573,28.50002136,0.25901164
'0:25.750',-0.79996750,-0.19003494,0.01999573,28.50002136,0.25901164
'0:25.875',-0.79996750,-0.20000946,0.01999573,28.30006409,0.25901164
'0:26.000',-0.80997177,-0.19003494,0.00999786,28.50002136,0.25901164
'0:26.125',-0.80997177,-0.20000946,0.00999786,28.50002136,0.25901164
'0:26.250',-0.80997177,-0.20000946,0.01999573,28.50002136,0.25901164
'0:26.375',-0.80997177,-0.20000946,0.00999786,28.50002136,0.25901164
'0:26.500',-0.79996750,-0.19003494,0.01999573,28.50002136,0.25901164
'0:26.625',-0.79996750,-0.20000946,0.01999573,28.50002136,0.26100481
'0:26.750',-0.80997177,-0.20000946,0.01999573,28.50002136,0.25901164
'0:26.875',-0.80997177,-0.20000946,0.01999573,28.30006409,0.26100481
'0:27.000',-0.80997177,-0.20000946,0.01999573,28.50002136,0.26402777
'0:27.125',-0.80997177,-0.21002106,0.01999573,28.50002136,0.26100481
'0:27.250',-0.81997604,-0.20000946,0.01999573,28.50002136,0.26402777
'0:27.375',-0.80997177,-0.20000946,0.01999573,28.50002136,0.26100481
'0:27.500',-0.79996750,-0.20000946,0.01999573,28.50002136,0.26100481
'0:27.625',-0.80997177,-0.20000946,0.01999573,28.50002136,0.26100481
'0:27.750',-0.80997177,-0.20000946,0.01999573,28.50002136,0.26402777
'0:27.875',-0.80997177,-0.21002106,0.00999786,28.50002136,0.26402777
'0:28.000',-0.80997177,-0.21002106,0.01999573,28.50002136,0.26402777
'0:28.125',-0.80997177,-0.20000946,0.01999573,28.50002136,0.26402777
'0:28.250',-0.80997177,-0.19003494,0.00999786,28.50002136,0.26402777
'0:28.375',-0.80997177,-0.19003494,0.01999573,28.50002136,0.26402777
'0:28.500',-0.79996750,-0.19003494,0.00999786,28.50002136,0.26100481
'0:28.625',-0.80997177,-0.19003494,0.01999573,28.50002136,0.26402777
'0:28.750',-0.79996750,-0.19003494,0.00999786,28.50002136,0.26100481
'0:28.875',-0.80997177,-0.20000946,0.00999786,28.50002136,0.26100481
'0:29.000',-0.79996750,-0.19003494,0.01999573,28.50002136,0.26402777
'0:29.125',-0.80997177,-0.19003494,0.01999573,28.50002136,0.26402777
'0:29.250',-0.79996750,-0.20000946,0.00999786,28.50002136,0.26100481
'0:29.375',-0.80997177,-0.19003494,0.01999573,28.50002136,0.26402777
'0:29.500',-0.79996750,-0.20000946,0.00999786,28.50002136,0.26402777
'0:29.625',-0.79996750,-0.19003494,0.01999573,28.50002136,0.26100481
'0:29.750',-0.79996750,-0.20000946,0.01999573,28.50002136,0.26402777
'0:29.875',-0.80997177,-0.20000946,0.00999786,28.50002136,0.26402777
'0:30.000',-0.79996750,-0.21002106,0.01999573,28.50002136,0.26402777
'0:30.125',-0.80997177,-0.20000946,0.00999786,28.50002136,0.26100481
'0:30.250',-0.80997177,-0.20000946,0.01999573,28.50002136,0.26100481
'0:30.375',-0.79996750,-0.20000946,0.01999573,28.50002136,0.26100481
'0:30.500',-0.80997177,-0.20000946,0.01999573,28.50002136,0.26100481
'0:30.625',-0.79996750,-0.20000946,0.01999573,28.50002136,0.25901164
'0:30.750',-0.79996750,-0.21002106,0.01999573,28.50002136,0.25901164
'0:30.875',-0.80997177,-0.20000946,0.01999573,28.50002136,0.26100481
'0:31.000',-0.80997177,-0.19003494,0.01999573,28.50002136,0.26100481
'0:31.125',-0.79996750,-0.21002106,0.01999573,28.50002136,0.25901164
'0:31.250',-0.80997177,-0.20000946,0.01999573,28.50002136,0.25901164
'0:31.375',-0.80997177,-0.20000946,0.01999573,28.50002136,0.25901164
'0:31.500',-0.79996750,-0.21002106,0.01999573,28.50002136,0.25901164
'0:31.625',-0.79996750,-0.20000946,0.00999786,28.50002136,0.25901164
'0:31.750',-0.80997177,-0.20000946,0.01999573,28.50002136,0.25901164
'0:31.875',-0.79996750,-0.20000946,0.01999573,28.50002136,0.25901164
'0:32.000',-0.79996750,-0.20000946,0.01999573,28.50002136,0.25901164
'0:32.125',-0.80997177,-0.20000946,0.01999573,28.50002136,0.25901164
'0:32.250',-0.79996750,-0.20000946,0.01999573,28.50002136,0.25901164
'0:32.375',-0.79996750,-0.20000946,0.01999573,28.50002136,0.25901164
'0:32.500',-0.80997177,-0.20000946,0.00999786,28.50002136,0.25901164
'0:32.625',-0.80997177,-0.19003494,0.01999573,28.50002136,0.25901164
'0:32.750',-0.80997177,-0.20000946,0.00999786,28.50002136,0.26100481
'0:32.875',-0.80997177,-0.20000946,0.01999573,28.50002136,0.26402777
'0:33.000',-0.80997177,-0.21002106,0.01999573,28.50002136,0.26100481
'0:33.125',-0.80997177,-0.20000946,0.01999573,28.50002136,0.26100481
'0:33.250',-0.80997177,-0.20000946,0.01999573,28.50002136,0.26100481
'0:33.375',-0.79996750,-0.21002106,0.00999786,28.50002136,0.26100481
'0:33.500',-0.79996750,-0.20000946,0.01999573,28.50002136,0.26100481
'0:33.625',-0.80997177,-0.21002106,0.01999573,28.50002136,0.26100481
'0:33.750',-0.79996750,-0.20000946,0.00999786,28.50002136,0.25901164
'0:33.875',-0.79996750,-0.21002106,0.00999786,28.50002136,0.26402777
'0:34.000',-0.80997177,-0.20000946,0.00999786,28.50002136,0.25901164
'0:34.125',-0.80997177,-0.20000946,0.00999786,28.50002136,0.25901164
'0:34.250',-0.79996750,-0.20000946,0.01999573,28.50002136,0.25901164
'0:34.375',-0.79996750,-0.21002106,0.01999573,28.50002136,0.26100481
'0:34.500',-0.79996750,-0.22003265,0.01999573,28.50002136,0.26100481
'0:34.625',-0.80997177,-0.20000946,0.00999786,28.50002136,0.26100481
'0:34.750',-0.80997177,-0.21002106,0.01999573,28.50002136,0.26100481
'0:34.875',-0.80997177,-0.20000946,0.01999573,28.50002136,0.26100481
'0:35.000',-0.79996750,-0.19003494,0.01999573,28.50002136,0.26100481
'0:35.125',-0.79996750,-0.20000946,0.01999573,28.50002136,0.26100481
'0:35.250',-0.80997177,-0.20000946,0.00999786,28.50002136,0.26100481
'0:35.375',-0.80997177,-0.19003494,0.01999573,28.50002136,0.26402777
'0:35.500',-0.79996750,-0.20000946,0.01999573,28.70005799,0.26100481
'0:35.625',-0.79996750,-0.20000946,0.01999573,28.50002136,0.26100481
'0:35.750',-0.80997177,-0.19003494,0.01999573,28.50002136,0.26402777
'0:35.875',-0.80997177,-0.20000946,0.01999573,28.50002136,0.26402777
'0:36.000',-0.79996750,-0.19003494,0.01999573,28.50002136,0.26200139
'0:36.125',-0.79996750,-0.20000946,0.01999573,28.50002136,0.26100481
'0:36.250',-0.79996750,-0.20000946,0.01999573,28.50002136,0.26402777
'0:36.375',-0.79996750,-0.20000946,0.01999573,28.50002136,0.26100481
'0:36.500',-0.80997177,-0.21002106,0.01999573,28.50002136,0.26100481
'0:36.625',-0.80997177,-0.21002106,0.01999573,28.50002136,0.26100481
'0:36.750',-0.80997177,-0.20000946,0.01999573,28.50002136,0.26100481
'0:36.875',-0.79996750,-0.20000946,0.01999573,28.50002136,0.25901164
'0:37.000',-0.79996750,-0.20000946,0.01999573,28.50002136,0.25901164
'0:37.125',-0.79996750,-0.20000946,0.01999573,28.50002136,0.26200139
'0:37.250',-0.79996750,-0.21002106,0.01999573,28.50002136,0.26100481
'0:37.375',-0.80997177,-0.20000946,0.01999573,28.70005799,0.26100481
'0:37.500',-0.80997177,-0.20000946,0.01999573,28.70005799,0.26100481
'0:37.625',-0.80997177,-0.20000946,0.00999786,28.70005799,0.26100481
'0:37.750',-0.79996750,-0.20000946,0.01999573,28.70005799,0.26200139
'0:37.875',-0.80997177,-0.20000946,0.00999786,28.50002136,0.26100481
'0:38.000',-0.79996750,-0.20000946,0.01999573,28.50002136,0.25901164
'0:38.125',-0.79996750,-0.19003494,0.01999573,28.50002136,0.25901164
'0:38.250',-0.80997177,-0.20000946,0.01999573,28.70005799,0.26100481
'0:38.375',-0.79996750,-0.20000946,0.01999573,28.70005799,0.25901164
'0:38.500',-0.79996750,-0.19003494,0.01999573,28.50002136,0.25901164
'0:38.625',-0.80997177,-0.20000946,0.01999573,28.70005799,0.25901164
'0:38.750',-0.79996750,-0.20000946,0.01999573,28.70005799,0.25901164
'0:38.875',-0.80997177,-0.21002106,0.01999573,28.50002136,0.25901164
'0:39.000',-0.80997177,-0.20000946,0.01999573,28.50002136,0.25901164
'0:39.125',-0.80997177,-0.20000946,0.01999573,28.50002136,0.25901164
'0:39.250',-0.80997177,-0.20000946,0.00999786,28.50002136,0.25901164
'0:39.375',-0.79996750,-0.20000946,0.01999573,28.70005799,0.25901164
'0:39.500',-0.79996750,-0.19003494,0.01999573,28.70005799,0.25901164
'0:39.625',-0.80997177,-0.20000946,0.01999573,28.70005799,0.25901164
'0:39.750',-0.79996750,-0.20000946,0.01999573,28.70005799,0.25901164
'0:39.875',-0.80997177,-0.21002106,0.02999359,28.70005799,0.25901164
'0:40.000',-0.79996750,-0.20000946,0.01999573,28.70005799,0.25901164
'0:40.125',-0.80997177,-0.20000946,0.00999786,28.70005799,0.25901164
'0:40.250',-0.79996750,-0.20000946,0.01999573,28.50002136,0.25901164
'0:40.375',-0.80997177,-0.20000946,0.01999573,28.70005799,0.25901164
'0:40.500',-0.80997177,-0.20000946,0.01999573,28.50002136,0.25901164
'0:40.625',-0.79996750,-0.20000946,0.00999786,28.50002136,0.25901164
'0:40.750',-0.80997177,-0.20000946,0.01999573,28.70005799,0.25901164
'0:40.875',-0.80997177,-0.20000946,0.01999573,28.70005799,0.25901164
'0:41.000',-0.80997177,-0.20000946,0.01999573,28.70005799,0.25901164
'0:41.125',-0.79996750,-0.20000946,0.00999786,28.70005799,0.25901164
'0:41.250',-0.79996750,-0.19003494,0.01999573,28.70005799,0.25901164
'0:41.375',-0.80997177,-0.20000946,0.01999573,28.70005799,0.25901164
'0:41.500',-0.79996750,-0.20000946,0.01999573,28.70005799,0.25901164
'0:41.625',-0.80997177,-0.20000946,0.01999573,28.70005799,0.25901164
'0:41.750',-0.79996750,-0.20000946,0.01999573,28.70005799,0.25901164
'0:41.875',-0.79996750,-0.20000946,0.02999359,28.70005799,0.25901164
'0:42.000',-0.79996750,-0.20000946,0.01999573,28.70005799,0.25901164
'0:42.125',-0.80997177,-0.20000946,0.01999573,28.70005799,0.25901164
'0:42.250',-0.80997177,-0.20000946,0.01999573,28.70005799,0.25901164
'0:42.375',-0.79996750,-0.20000946,0.01999573,28.50002136,0.25901164
'0:42.500',-0.79996750,-0.20000946,0.01999573,28.70005799,0.25901164
'0:42.625',-0.79996750,-0.20000946,0.01999573,28.70005799,0.25602190
'0:42.750',-0.79996750,-0.20000946,0.01999573,28.70005799,0.25402873
'0:42.875',-0.80997177,-0.21002106,0.01999573,28.70005799,0.25701848
'0:43.000',-0.79996750,-0.20000946,0.01999573,28.70005799,0.25602190
'0:43.125',-0.80997177,-0.20000946,0.01999573,28.70005799,0.25602190
'0:43.250',-0.80997177,-0.20000946,0.01999573,28.70005799,0.25701848
'0:43.375',-0.80997177,-0.20000946,0.01999573,28.70005799,0.25701848
'0:43.500',-0.80997177,-0.20000946,0.01999573,28.70005799,0.25701848
'0:43.625',-0.80997177,-0.20000946,0.01999573,28.70005799,0.25602190
'0:43.750',-0.79996750,-0.20000946,0.01999573,28.70005799,0.25901164
'0:43.875',-0.80997177,-0.20000946,0.01999573,28.70005799,0.25701848
'0:44.000',-0.80997177,-0.19003494,0.01999573,28.70005799,0.25701848
'0:44.125',-0.80997177,-0.20000946,0.01999573,28.70005799,0.25602190
'0:44.250',-0.80997177,-0.20000946,0.01999573,28.70005799,0.25701848
'0:44.375',-0.80997177,-0.20000946,0.01999573,28.70005799,0.25901164
'0:44.500',-0.80997177,-0.20000946,0.01999573,28.70005799,0.25402873
'0:44.625',-0.80997177,-0.20000946,0.01999573,28.70005799,0.25402873
'0:44.750',-0.80997177,-0.20000946,0.01999573,28.70005799,0.25303215
'0:44.875',-0.79996750,-0.20000946,0.01999573,28.70005799,0.25402873
'0:45.000',-0.79996750,-0.20000946,0.01999573,28.70005799,0.25402873
'0:45.125',-0.80997177,-0.20000946,0.01999573,28.70005799,0.25402873
'0:45.250',-0.79996750,-0.20000946,0.01999573,28.70005799,0.25701848
'0:45.375',-0.80997177,-0.20000946,0.02999359,28.70005799,0.25303215
'0:45.500',-0.79996750,-0.21002106,0.01999573,28.70005799,0.25402873
'0:45.625',-0.80997177,-0.20000946,0.02999359,28.70005799,0.25402873
'0:45.750',-0.79996750,-0.20000946,0.02999359,28.70005799,0.25303215
'0:45.875',-0.80997177,-0.20000946,0.02999359,28.70005799,0.25402873
'0:46.000',-0.79996750,-0.20000946,0.02999359,28.70005799,0.25303215
'0:46.125',-0.79996750,-0.19003494,0.01999573,28.70005799,0.25402873
'0:46.250',-0.79996750,-0.20000946,0.02999359,28.70005799,0.25402873
'0:46.375',-0.79996750,-0.20000946,0.02999359,28.70005799,0.25303215
'0:46.500',-0.79996750,-0.20000946,0.02999359,28.70005799,0.25402873
'0:46.625',-0.79996750,-0.20000946,0.01999573,28.70005799,0.25303215
'0:46.750',-0.79996750,-0.19003494,0.01999573,28.90001526,0.25701848
'0:46.875',-0.80997177,-0.20000946,0.01999573,28.70005799,0.25602190
'0:47.000',-0.81997604,-0.19003494,0.01999573,28.70005799,0.25303215
'0:47.125',-0.80997177,-0.20000946,0.01999573,28.70005799,0.25402873
'0:47.250',-0.80997177,-0.19003494,0.01999573,28.70005799,0.25701848
'0:47.375',-0.80997177,-0.19003494,0.01999573,28.70005799,0.25402873
'0:47.500',-0.79996750,-0.21002106,0.02999359,28.70005799,0.25402873
'0:47.625',-0.80997177,-0.20000946,0.01999573,28.70005799,0.25402873
'0:47.750',-0.80997177,-0.20000946,0.02999359,28.70005799,0.25701848
'0:47.875',-0.79996750,-0.20000946,0.01999573,28.70005799,0.25402873
'0:48.000',-0.79996750,-0.20000946,0.02999359,28.70005799,0.25303215
'0:48.125',-0.80997177,-0.21002106,0.02999359,28.70005799,0.25402873
'0:48.250',-0.79996750,-0.19003494,0.02999359,28.70005799,0.25402873
'0:48.375',-0.80997177,-0.20000946,0.02999359,28.90001526,0.25303215
'0:48.500',-0.79996750,-0.20000946,0.02999359,28.70005799,0.25303215
'0:48.625',-0.80997177,-0.20000946,0.02999359,28.70005799,0.25402873
'0:48.750',-0.79996750,-0.20000946,0.01999573,28.70005799,0.25303215
'0:48.875',-0.79996750,-0.20000946,0.02999359,28.70005799,0.25303215
'0:49.000',-0.79996750,-0.20000946,0.01999573,28.70005799,0.25602190
'0:49.125',-0.79996750,-0.20000946,0.01999573,28.70005799,0.25402873
'0:49.250',-0.79996750,-0.20000946,0.01999573,28.70005799,0.25303215
'0:49.375',-0.79996750,-0.20000946,0.01999573,28.70005799,0.25303215
'0:49.500',-0.80997177,-0.20000946,0.01999573,28.90001526,0.25402873
'0:49.625',-0.80997177,-0.21002106,0.01999573,28.70005799,0.25402873
'0:49.750',-0.79996750,-0.20000946,0.01999573,28.70005799,0.25402873
'0:49.875',-0.80997177,-0.20000946,0.01999573,28.90001526,0.25402873
'0:50.000',-0.79996750,-0.20000946,0.02999359,28.70005799,0.25402873
'0:50.125',-0.79996750,-0.20000946,0.01999573,28.70005799,0.25402873
'0:50.250',-0.79996750,-0.19003494,0.02999359,28.90001526,0.25901164
'0:50.375',-0.79996750,-0.19003494,0.02999359,28.90001526,0.25901164
'0:50.500',-0.79996750,-0.20000946,0.01999573,28.70005799,0.25901164
'0:50.625',-0.80997177,-0.20000946,0.02999359,28.70005799,0.25701848
'0:50.750',-0.79996750,-0.20000946,0.02999359,28.70005799,0.25701848
'0:50.875',-0.80997177,-0.20000946,0.01999573,28.90001526,0.25901164
'0:51.000',-0.80997177,-0.20000946,0.02999359,28.90001526,0.25901164
'0:51.125',-0.79996750,-0.20000946,0.02999359,28.90001526,0.25701848
'0:51.250',-0.79996750,-0.19003494,0.02999359,28.90001526,0.25701848
'0:51.375',-0.80997177,-0.20000946,0.01999573,28.70005799,0.25602190
'0:51.500',-0.80997177,-0.20000946,0.02999359,28.70005799,0.25701848
'0:51.625',-0.80997177,-0.20000946,0.02999359,28.70005799,0.25901164
'0:51.750',-0.79996750,-0.20000946,0.02999359,28.70005799,0.25701848
'0:51.875',-0.79996750,-0.20000946,0.02999359,28.90001526,0.25901164
'0:52.000',-0.80997177,-0.20000946,0.02999359,28.90001526,0.25901164
'0:52.125',-0.79996750,-0.20000946,0.02999359,28.70005799,0.25901164
'0:52.250',-0.79996750,-0.21002106,0.01999573,28.90001526,0.25901164
'0:52.375',-0.79996750,-0.20000946,0.02999359,28.90001526,0.25901164
'0:52.500',-0.79996750,-0.20000946,0.01999573,28.90001526,0.25901164
'0:52.625',-0.79996750,-0.20000946,0.01999573,28.70005799,0.25901164
'0:52.750',-0.79996750,-0.19003494,0.01999573,28.90001526,0.25701848
'0:52.875',-0.79996750,-0.19003494,0.01999573,28.90001526,0.25901164
'0:53.000',-0.79996750,-0.19003494,0.01999573,28.90001526,0.25901164
'0:53.125',-0.80997177,-0.21002106,0.01999573,28.90001526,0.25901164
'0:53.250',-0.80997177,-0.20000946,0.02999359,28.90001526,0.25901164
'0:53.375',-0.80997177,-0.20000946,0.02999359,28.90001526,0.25901164
'0:53.500',-0.80997177,-0.20000946,0.01999573,28.90001526,0.25901164
'0:53.625',-0.80997177,-0.21002106,0.01999573,28.90001526,0.25901164
'0:53.750',-0.80997177,-0.20000946,0.01999573,28.90001526,0.25901164
'0:53.875',-0.79996750,-0.20000946,0.01999573,28.90001526,0.25901164
'0:54.000',-0.79996750,-0.20000946,0.02999359,28.90001526,0.25901164
'0:54.125',-0.80997177,-0.21002106,0.02999359,28.90001526,0.25901164
'0:54.250',-0.79996750,-0.20000946,0.02999359,28.90001526,0.25901164
'0:54.375',-0.79996750,-0.20000946,0.02999359,28.90001526,0.25901164
'0:54.500',-0.79996750,-0.20000946,0.02999359,28.90001526,0.25901164
'0:54.625',-0.80997177,-0.20000946,0.01999573,28.90001526,0.25901164
'0:54.750',-0.79996750,-0.21002106,0.02999359,28.90001526,0.25901164
'0:54.875',-0.79996750,-0.21002106,0.02999359,28.90001526,0.25901164
'0:55.000',-0.79996750,-0.23000717,0.01999573,28.90001526,0.25901164
'0:55.125',-0.79996750,-0.21002106,0.02999359,28.90001526,0.25901164
'0:55.250',-0.80997177,-0.20000946,0.02999359,28.90001526,0.25901164
'0:55.375',-0.80997177,-0.21002106,0.02999359,28.90001526,0.25901164
'0:55.500',-0.80997177,-0.20000946,0.02999359,28.90001526,0.25901164
'0:55.625',-0.79996750,-0.22003265,0.01999573,28.90001526,0.25901164
'0:55.750',-0.79996750,-0.21002106,0.02999359,28.90001526,0.25901164
'0:55.875',-0.79996750,-0.20000946,0.01999573,28.90001526,0.25901164
'0:56.000',-0.79996750,-0.20000946,0.01999573,28.90001526,0.25901164
'0:56.125',-0.80997177,-0.21002106,0.02999359,28.90001526,0.25901164
'0:56.250',-0.80997177,-0.21002106,0.01999573,28.90001526,0.25901164
'0:56.375',-0.79996750,-0.21002106,0.02999359,28.90001526,0.25901164
'0:56.500',-0.80997177,-0.20000946,0.02999359,28.90001526,0.25901164
'0:56.625',-0.79996750,-0.21002106,0.02999359,28.90001526,0.25901164
'0:56.750',-0.80997177,-0.21002106,0.02999359,28.90001526,0.25901164
'0:56.875',-0.79996750,-0.21002106,0.01999573,28.90001526,0.25901164
'0:57.000',-0.79996750,-0.21002106,0.01999573,28.90001526,0.25901164
'0:57.125',-0.79996750,-0.20000946,0.02999359,28.90001526,0.25901164
'0:57.250',-0.79996750,-0.21002106,0.02999359,28.90001526,0.25901164
'0:57.375',-0.79996750,-0.21002106,0.02999359,28.90001526,0.25901164
'0:57.500',-0.80997177,-0.21002106,0.02999359,28.90001526,0.25901164
'0:57.625',-0.79996750,-0.21002106,0.02999359,28.90001526,0.25901164
'0:57.750',-0.80997177,-0.21002106,0.03999145,28.90001526,0.25901164
'0:57.875',-0.80997177,-0.21002106,0.01999573,28.90001526,0.25901164
'0:58.000',-0.78999725,-0.20000946,0.02999359,28.90001526,0.25901164
'0:58.125',-0.80997177,-0.21002106,0.02999359,28.90001526,0.25901164
'0:58.250',-0.79996750,-0.21002106,0.02999359,28.90001526,0.25901164
'0:58.375',-0.79996750,-0.20000946,0.02999359,28.90001526,0.25901164
'0:58.500',-0.79996750,-0.21002106,0.01999573,28.90001526,0.25901164
'0:58.625',-0.79996750,-0.21002106,0.02999359,28.90001526,0.25901164
'0:58.750',-0.79996750,-0.20000946,0.02999359,28.90001526,0.26200139
'0:58.875',-0.80997177,-0.21002106,0.01999573,28.90001526,0.25901164
'0:59.000',-0.79996750,-0.21002106,0.02999359,28.90001526,0.26100481
'0:59.125',-0.80997177,-0.21002106,0.01999573,28.90001526,0.26402777
'0:59.250',-0.80997177,-0.21002106,0.02999359,28.90001526,0.26100481
'0:59.375',-0.79996750,-0.21002106,0.02999359,28.90001526,0.25901164
'0:59.500',-0.80997177,-0.21002106,0.02999359,28.90001526,0.25901164
'0:59.625',-0.79996750,-0.20000946,0.01999573,28.90001526,0.26402777
'0:59.750',-0.80997177,-0.21002106,0.02999359,28.90001526,0.26402777
'0:59.875',-0.80997177,-0.21002106,0.02999359,28.90001526,0.25901164
'1:00.000',-0.79996750,-0.21002106,0.02999359,28.90001526,0.26200139
'1:00.125',-0.79996750,-0.21002106,0.02999359,28.90001526,0.26100481
'1:00.250',-0.79996750,-0.21002106,0.02999359,28.90001526,0.25901164
'1:00.375',-0.79996750,-0.21002106,0.02999359,28.90001526,0.26402777
'1:00.500',-0.79996750,-0.21002106,0.02999359,28.90001526,0.26402777
'1:00.625',-0.80997177,-0.21002106,0.02999359,28.90001526,0.26402777
'1:00.750',-0.79996750,-0.21002106,0.02999359,28.90001526,0.25901164
'1:00.875',-0.80997177,-0.21002106,0.02999359,28.90001526,0.26402777
'1:01.000',-0.80997177,-0.21002106,0.01999573,28.90001526,0.26402777
'1:01.125',-0.79996750,-0.20000946,0.02999359,29.10005188,0.26100481
'1:01.250',-0.79996750,-0.19003494,0.02999359,29.10005188,0.26100481
'1:01.375',-0.79996750,-0.20000946,0.02999359,28.90001526,0.26402777
'1:01.500',-0.80997177,-0.22003265,0.01999573,28.90001526,0.26402777
'1:01.625',-0.79996750,-0.21002106,0.02999359,28.90001526,0.26100481
'1:01.750',-0.79996750,-0.21002106,0.01999573,28.90001526,0.26402777
'1:01.875',-0.79996750,-0.22003265,0.01999573,28.90001526,0.26402777
'1:02.000',-0.79996750,-0.23000717,0.00999786,28.90001526,0.26402777
'1:02.125',-0.79996750,-0.22003265,0.01999573,29.10005188,0.26402777
'1:02.250',-0.79996750,-0.21002106,0.01999573,29.10005188,0.26402777
'1:02.375',-0.79996750,-0.23000717,0.00999786,28.90001526,0.26402777
'1:02.500',-0.79996750,-0.23000717,0.00999786,28.90001526,0.26402777
'1:02.625',-0.79996750,-0.24001877,0.00000000,28.90001526,0.26402777
'1:02.750',-0.79996750,-0.24001877,0.00000000,28.90001526,0.26402777
'1:02.875',-0.79996750,-0.24001877,0.00000000,28.90001526,0.26402777
'1:03.000',-0.78999725,-0.26000488,0.00000000,29.10005188,0.26402777
'1:03.125',-0.80997177,-0.26000488,0.00000000,28.90001526,0.26402777
'1:03.250',-0.79996750,-0.26000488,0.00000000,29.10005188,0.26402777
'1:03.375',-0.79996750,-0.25003037,0.00000000,28.90001526,0.26402777
'1:03.500',-0.78999725,-0.26000488,0.00000000,29.10005188,0.26402777
'1:03.625',-0.79996750,-0.25003037,0.00000000,29.10005188,0.26402777
'1:03.750',-0.80997177,-0.25003037,0.00000000,29.10005188,0.26402777
'1:03.875',-0.79996750,-0.25003037,0.00000000,28.90001526,0.26402777
'1:04.000',-0.79996750,-0.26000488,0.00000000,28.90001526,0.26402777
'1:04.125',-0.78999725,-0.26000488,0.00000000,29.10005188,0.26402777
'1:04.250',-0.79996750,-0.26000488,0.00000000,29.10005188,0.26402777
'1:04.375',-0.79996750,-0.26000488,0.00000000,29.10005188,0.26402777
'1:04.500',-0.79996750,-0.25003037,0.00000000,29.10005188,0.26402777
'1:04.625',-0.79996750,-0.25003037,0.00000000,29.10005188,0.26402777
'1:04.750',-0.79996750,-0.26000488,0.00000000,29.10005188,0.26402777
'1:04.875',-0.79996750,-0.26000488,0.00000000,29.10005188,0.26402777
'1:05.000',-0.78999725,-0.26000488,0.00000000,29.10005188,0.26402777
'1:05.125',-0.78999725,-0.26000488,0.00000000,29.10005188,0.26402777
'1:05.250',-0.79996750,-0.26000488,0.00000000,29.10005188,0.26402777
'1:05.375',-0.79996750,-0.25003037,0.00000000,29.10005188,0.26402777
'1:05.500',-0.79996750,-0.26000488,0.00000000,29.10005188,0.26402777
'1:05.625',-0.78999725,-0.26000488,0.00000000,29.10005188,0.26402777
'1:05.750',-0.79996750,-0.25003037,0.00000000,29.10005188,0.26402777
'1:05.875',-0.79996750,-0.26000488,0.00000000,29.10005188,0.26402777
'1:06.000',-0.79996750,-0.25003037,0.00000000,29.10005188,0.26402777
'1:06.125',-0.78999725,-0.26000488,0.00000000,29.10005188,0.26402777
'1:06.250',-0.78999725,-0.25003037,0.00000000,29.10005188,0.26402777
'1:06.375',-0.79996750,-0.26000488,0.00000000,29.10005188,0.26402777
'1:06.500',-0.78999725,-0.26000488,0.00000000,29.10005188,0.26402777
'1:06.625',-0.78999725,-0.26000488,0.00000000,29.10005188,0.26402777
'1:06.750',-0.79996750,-0.25003037,0.00000000,29.10005188,0.26402777
'1:06.875',-0.78999725,-0.26000488,0.00000000,29.10005188,0.26402777
'1:07.000',-0.79996750,-0.25003037,0.00000000,29.10005188,0.26402777
'1:07.125',-0.79996750,-0.26000488,0.00000000,29.10005188,0.26402777
'1:07.250',-0.78999725,-0.26000488,0.00000000,29.10005188,0.26402777
'1:07.375',-0.80997177,-0.26000488,0.00000000,29.10005188,0.26402777
'1:07.500',-0.79996750,-0.25003037,0.00000000,29.10005188,0.26402777
'1:07.625',-0.79996750,-0.25003037,0.00000000,29.10005188,0.26402777
'1:07.750',-0.79996750,-0.25003037,0.00000000,29.10005188,0.26402777
'1:07.875',-0.79996750,-0.25003037,0.00000000,29.10005188,0.26402777
'1:08.000',-0.79996750,-0.25003037,0.00000000,29.10005188,0.26402777
'1:08.125',-0.79996750,-0.25003037,0.00000000,29.10005188,0.26402777
'1:08.250',-0.79996750,-0.25003037,0.00000000,29.10005188,0.26402777
'1:08.375',-0.79996750,-0.25003037,0.00000000,29.10005188,0.26402777
'1:08.500',-0.79996750,-0.26000488,0.00000000,29.10005188,0.26402777
'1:08.625',-0.79996750,-0.25003037,0.00000000,29.10005188,0.26402777
'1:08.750',-0.79996750,-0.26000488,0.00000000,29.10005188,0.26402777
'1:08.875',-0.79996750,-0.25003037,0.00000000,29.10005188,0.26402777
'1:09.000',-0.79996750,-0.25003037,0.00000000,29.10005188,0.26402777
'1:09.125',-0.79996750,-0.26000488,0.00000000,29.10005188,0.26402777
'1:09.250',-0.79996750,-0.25003037,0.00999786,29.10005188,0.26402777
'1:09.375',-0.79996750,-0.26000488,0.00000000,29.10005188,0.26402777
'1:09.500',-0.78999725,-0.25003037,0.00000000,29.10005188,0.26402777
'1:09.625',-0.79996750,-0.26000488,0.00000000,29.10005188,0.26402777
'1:09.750',-0.79996750,-0.26000488,0.00000000,29.10005188,0.26402777
'1:09.875',-0.78999725,-0.25003037,0.00000000,29.10005188,0.26402777
'1:10.000',-0.78999725,-0.26000488,0.00000000,29.10005188,0.26402777
'1:10.125',-0.79996750,-0.26000488,0.00000000,29.10005188,0.26100481
'1:10.250',-0.78999725,-0.26000488,0.00000000,29.10005188,0.26402777
'1:10.375',-0.79996750,-0.25003037,0.00000000,29.10005188,0.26402777
'1:10.500',-0.79996750,-0.26000488,0.00999786,29.10005188,0.26402777
'1:10.625',-0.80997177,-0.25003037,0.00000000,29.10005188,0.26402777
'1:10.750',-0.78999725,-0.26000488,0.00000000,29.10005188,0.26402777
'1:10.875',-0.79996750,-0.26000488,0.00000000,29.10005188,0.26402777
'1:11.000',-0.79996750,-0.25003037,0.00000000,29.10005188,0.26100481
'1:11.125',-0.78999725,-0.25003037,0.00000000,29.10005188,0.26402777
'1:11.250',-0.79996750,-0.26000488,0.00000000,29.10005188,0.26100481
'1:11.375',-0.78999725,-0.26000488,0.00000000,29.10005188,0.26402777
'1:11.500',-0.78999725,-0.25003037,0.00000000,29.10005188,0.26402777
'1:11.625',-0.78999725,-0.26000488,0.00000000,29.10005188,0.26100481
'1:11.750',-0.79996750,-0.26000488,0.00000000,29.10005188,0.26100481
'1:11.875',-0.79996750,-0.26000488,0.00000000,29.10005188,0.26100481
'1:12.000',-0.78999725,-0.25003037,0.00000000,29.10005188,0.26100481
'1:12.125',-0.79996750,-0.26000488,0.00000000,29.10005188,0.26100481
'1:12.250',-0.78999725,-0.25003037,0.00999786,29.10005188,0.26100481
'1:12.375',-0.78999725,-0.25003037,0.00000000,29.10005188,0.26402777
'1:12.500',-0.79996750,-0.26000488,0.00000000,29.10005188,0.26100481
'1:12.625',-0.79996750,-0.26000488,0.00000000,29.10005188,0.26100481
'1:12.750',-0.79996750,-0.25003037,0.00999786,29.10005188,0.26402777
'1:12.875',-0.79996750,-0.26000488,0.00000000,29.10005188,0.26402777
'1:13.000',-0.79996750,-0.26000488,0.00000000,29.10005188,0.26402777
'1:13.125',-0.79996750,-0.26000488,0.00000000,29.10005188,0.26402777
'1:13.250',-0.78999725,-0.26000488,0.00000000,29.10005188,0.26402777
'1:13.375',-0.79996750,-0.25003037,0.00000000,29.10005188,0.26100481
'1:13.500',-0.79996750,-0.25003037,0.00000000,29.10005188,0.26402777
'1:13.625',-0.79996750,-0.26000488,0.00000000,29.10005188,0.26402777
'1:13.750',-0.79996750,-0.27001648,0.00000000,29.10005188,0.26402777
'1:13.875',-0.78999725,-0.25003037,0.00000000,29.10005188,0.26402777
'1:14.000',-0.79996750,-0.25003037,0.00000000,29.10005188,0.26402777
'1:14.125',-0.79996750,-0.26000488,0.00000000,29.10005188,0.26402777
'1:14.250',-0.79996750,-0.25003037,0.00000000,29.30000916,0.26402777
'1:14.375',-0.79996750,-0.26000488,0.00000000,29.10005188,0.26402777
'1:14.500',-0.78999725,-0.26000488,0.00000000,29.10005188,0.26402777
'1:14.625',-0.80997177,-0.26000488,0.00000000,29.10005188,0.26402777
'1:14.750',-0.79996750,-0.26000488,0.00000000,29.10005188,0.26402777
'1:14.875',-0.79996750,-0.26000488,0.00000000,29.10005188,0.26402777
'1:15.000',-0.79996750,-0.26000488,0.00000000,29.10005188,0.26402777
'1:15.125',-0.79996750,-0.26000488,0.00000000,29.10005188,0.26402777
'1:15.250',-0.79996750,-0.27001648,0.00000000,29.10005188,0.26402777
'1:15.375',-0.79996750,-0.26000488,0.00000000,29.10005188,0.26402777
'1:15.500',-0.79996750,-0.26000488,0.00000000,29.10005188,0.26402777
'1:15.625',-0.79996750,-0.26000488,0.00999786,29.10005188,0.26402777
'1:15.750',-0.79996750,-0.26000488,0.00000000,29.10005188,0.26402777
'1:15.875',-0.79996750,-0.26000488,0.00000000,29.10005188,0.26402777
'1:16.000',-0.79996750,-0.25003037,0.00000000,29.10005188,0.26402777
'1:16.125',-0.79996750,-0.26000488,0.00000000,29.30000916,0.26402777
'1:16.250',-0.79996750,-0.26000488,0.00000000,29.10005188,0.26402777
'1:16.375',-0.80997177,-0.26000488,0.00000000,29.10005188,0.26402777
'1:16.500',-0.79996750,-0.25003037,0.00000000,29.10005188,0.26402777
'1:16.625',-0.78999725,-0.26000488,0.00000000,29.10005188,0.26402777
'1:16.750',-0.78999725,-0.26000488,0.00000000,29.10005188,0.26402777
'1:16.875',-0.79996750,-0.25003037,0.00000000,29.10005188,0.26402777
'1:17.000',-0.79996750,-0.26000488,0.00000000,29.30000916,0.26402777
'1:17.125',-0.79996750,-0.26000488,0.00000000,29.10005188,0.26402777
'1:17.250',-0.78999725,-0.26000488,0.00999786,29.10005188,0.26402777
'1:17.375',-0.79996750,-0.26000488,0.00000000,29.30000916,0.26402777
'1:17.500',-0.78999725,-0.26000488,0.00000000,29.10005188,0.26402777
'1:17.625',-0.79996750,-0.27001648,0.00000000,29.10005188,0.26402777
'1:17.750',-0.78999725,-0.26000488,0.00999786,29.10005188,0.26402777
'1:17.875',-0.79996750,-0.26000488,0.00000000,29.10005188,0.26402777
'1:18.000',-0.79996750,-0.26000488,0.00000000,29.10005188,0.26402777
'1:18.125',-0.79996750,-0.26000488,0.00000000,29.10005188,0.26402777
'1:18.250',-0.78999725,-0.26000488,0.00000000,29.30000916,0.26402777
'1:18.375',-0.79996750,-0.26000488,0.00999786,29.30000916,0.26402777
'1:18.500',-0.79996750,-0.26000488,0.00000000,29.10005188,0.26701752
'1:18.625',-0.79996750,-0.26000488,0.00000000,29.30000916,0.27000726
'1:18.750',-0.79996750,-0.26000488,0.00000000,29.30000916,0.26701752
'1:18.875',-0.80997177,-0.26000488,0.00000000,29.10005188,0.26701752
'1:19.000',-0.79996750,-0.26000488,0.00000000,29.30000916,0.26402777
'1:19.125',-0.79996750,-0.25003037,0.00000000,29.30000916,0.26402777
'1:19.250',-0.79996750,-0.26000488,0.00000000,29.30000916,0.26402777
'1:19.375',-0.78999725,-0.26000488,0.00999786,29.30000916,0.26402777
'1:19.500',-0.78999725,-0.26000488,0.00000000,29.10005188,0.26402777
'1:19.625',-0.79996750,-0.26000488,0.00000000,29.30000916,0.26402777
'1:19.750',-0.79996750,-0.26000488,0.00000000,29.30000916,0.26402777
'1:19.875',-0.78999725,-0.26000488,0.00000000,29.30000916,0.26402777
'1:20.000',-0.79996750,-0.26000488,0.00000000,29.30000916,0.26402777
'1:20.125',-0.79996750,-0.26000488,0.00000000,29.30000916,0.26402777
'1:20.250',-0.79996750,-0.25003037,0.00000000,29.30000916,0.26402777
'1:20.375',-0.79996750,-0.26000488,0.00000000,29.30000916,0.26402777
'1:20.500',-0.79996750,-0.25003037,0.00000000,29.30000916,0.26402777
'1:20.625',-0.78999725,-0.26000488,0.00000000,29.30000916,0.26402777
'1:20.750',-0.79996750,-0.25003037,0.00000000,29.30000916,0.26402777
'1:20.875',-0.79996750,-0.26000488,0.00999786,29.30000916,0.26402777
'1:21.000',-0.79996750,-0.26000488,0.00999786,29.30000916,0.26402777
'1:21.125',-0.79996750,-0.26000488,0.00000000,29.30000916,0.26402777
'1:21.250',-0.79996750,-0.26000488,0.00000000,29.30000916,0.26402777
'1:21.375',-0.79996750,-0.26000488,0.00000000,29.30000916,0.26402777
'1:21.500',-0.78999725,-0.26000488,0.00000000,29.30000916,0.26402777
'1:21.625',-0.79996750,-0.26000488,0.00000000,29.30000916,0.26402777
'1:21.750',-0.79996750,-0.25003037,0.00000000,29.30000916,0.26402777
'1:21.875',-0.79996750,-0.26000488,0.00000000,29.30000916,0.26402777
'1:22.000',-0.80997177,-0.26000488,0.00000000,29.30000916,0.26402777
'1:22.125',-0.79996750,-0.26000488,0.00000000,29.30000916,0.26402777
'1:22.250',-0.79996750,-0.25003037,0.00999786,29.10005188,0.26402777
'1:22.375',-0.79996750,-0.26000488,0.00000000,29.30000916,0.26402777
'1:22.500',-0.80997177,-0.25003037,0.00000000,29.30000916,0.26402777
'1:22.625',-0.79996750,-0.26000488,0.00000000,29.30000916,0.26402777
'1:22.750',-0.79996750,-0.26000488,0.00000000,29.30000916,0.26402777
'1:22.875',-0.78999725,-0.26000488,0.00000000,29.30000916,0.26402777
'1:23.000',-0.79996750,-0.26000488,0.00000000,29.30000916,0.26402777
'1:23.125',-0.78999725,-0.25003037,0.00000000,29.30000916,0.26402777
'1:23.250',-0.79996750,-0.26000488,0.00000000,29.30000916,0.26402777
'1:23.375',-0.78999725,-0.26000488,0.00000000,29.30000916,0.26402777
'1:23.500',-0.79996750,-0.26000488,0.00999786,29.30000916,0.26402777
'1:23.625',-0.79996750,-0.25003037,0.00000000,29.30000916,0.26402777
'1:23.750',-0.79996750,-0.25003037,0.00000000,29.30000916,0.26402777
'1:23.875',-0.79996750,-0.26000488,0.00000000,29.30000916,0.26402777
'1:24.000',-0.79996750,-0.26000488,0.00000000,29.30000916,0.26402777
'1:24.125',-0.79996750,-0.26000488,0.00000000,29.30000916,0.26402777
'1:24.250',-0.79996750,-0.26000488,0.00999786,29.30000916,0.26402777
'1:24.375',-0.79996750,-0.26000488,0.00000000,29.30000916,0.26402777
'1:24.500',-0.79996750,-0.26000488,0.00000000,29.30000916,0.26402777
'1:24.625',-0.79996750,-0.25003037,0.00000000,29.30000916,0.26402777
'1:24.750',-0.79996750,-0.26000488,0.00000000,29.30000916,0.26402777
'1:24.875',-0.80997177,-0.26000488,0.00000000,29.30000916,0.26402777
'1:25.000',-0.79996750,-0.26000488,0.00000000,29.30000916,0.26402777
'1:25.125',-0.79996750,-0.26000488,0.00000000,29.30000916,0.26402777
'1:25.250',-0.79996750,-0.26000488,0.00000000,29.30000916,0.26402777
'1:25.375',-0.79996750,-0.26000488,0.00000000,29.50004578,0.26402777
'1:25.500',-0.78999725,-0.26000488,0.00000000,29.50004578,0.26402777
'1:25.625',-0.80997177,-0.26000488,0.00000000,29.50004578,0.26402777
'1:25.750',-0.79996750,-0.27001648,0.00999786,29.50004578,0.26402777
'1:25.875',-0.78999725,-0.26000488,0.00000000,29.30000916,0.26402777
'1:26.000',-0.79996750,-0.25003037,0.00999786,29.30000916,0.26402777
'1:26.125',-0.79996750,-0.26000488,0.00000000,29.30000916,0.26402777
'1:26.250',-0.78999725,-0.26000488,0.00999786,29.30000916,0.26402777
'1:26.375',-0.79996750,-0.26000488,0.00000000,29.30000916,0.26402777
'1:26.500',-0.78999725,-0.26000488,0.00000000,29.30000916,0.26402777
'1:26.625',-0.79996750,-0.26000488,0.00000000,29.30000916,0.26402777
'1:26.750',-0.79996750,-0.26000488,0.00000000,29.30000916,0.26402777
'1:26.875',-0.78999725,-0.26000488,0.00999786,29.30000916,0.26402777
'1:27.000',-0.79996750,-0.26000488,0.00000000,29.30000916,0.26402777
'1:27.125',-0.78999725,-0.26000488,0.00000000,29.30000916,0.26402777
'1:27.250',-0.79996750,-0.26000488,0.00000000,29.30000916,0.26402777
'1:27.375',-0.79996750,-0.26000488,0.00000000,29.30000916,0.26402777
'1:27.500',-0.79996750,-0.26000488,0.00000000,29.30000916,0.26402777
'1:27.625',-0.79996750,-0.26000488,0.00000000,29.30000916,0.26402777
'1:27.750',-0.79996750,-0.26000488,0.00000000,29.30000916,0.26402777
'1:27.875',-0.79996750,-0.26000488,0.00000000,29.30000916,0.26402777
'1:28.000',-0.79996750,-0.26000488,0.00000000,29.30000916,0.26402777
'1:28.125',-0.78999725,-0.25003037,0.00000000,29.30000916,0.26402777
'1:28.250',-0.79996750,-0.26000488,0.00000000,29.30000916,0.26402777
'1:28.375',-0.79996750,-0.25003037,0.00000000,29.30000916,0.26402777
'1:28.500',-0.78999725,-0.25003037,0.00000000,29.30000916,0.26402777
'1:28.625',-0.79996750,-0.26000488,0.00000000,29.30000916,0.26402777
'1:28.750',-0.78999725,-0.26000488,0.00000000,29.30000916,0.26402777
'1:28.875',-0.79996750,-0.25003037,0.00000000,29.30000916,0.26402777
'1:29.000',-0.78999725,-0.26000488,0.00000000,29.30000916,0.26402777
'1:29.125',-0.79996750,-0.25003037,0.00000000,29.30000916,0.26402777
'1:29.250',-0.79996750,-0.26000488,0.00000000,29.30000916,0.26402777
'1:29.375',-0.79996750,-0.27001648,0.00000000,29.30000916,0.26402777
'1:29.500',-0.79996750,-0.26000488,0.00000000,29.30000916,0.26402777
'1:29.625',-0.79996750,-0.27001648,0.00999786,29.30000916,0.26402777
'1:29.750',-0.79996750,-0.26000488,0.00000000,29.30000916,0.26402777
'1:29.875',-0.79996750,-0.26000488,0.00000000,29.30000916,0.26402777
'1:30.000',-0.78999725,-0.27001648,0.00000000,29.30000916,0.26402777
'1:30.125',-0.79996750,-0.26000488,0.00999786,29.30000916,0.26402777
'1:30.250',-0.80997177,-0.26000488,0.00000000,29.30000916,0.26402777
'1:30.375',-0.79996750,-0.26000488,0.00000000,29.30000916,0.26402777
'1:30.500',-0.79996750,-0.26000488,0.00000000,29.30000916,0.26402777
'1:30.625',-0.79996750,-0.26000488,0.00999786,29.30000916,0.26402777
'1:30.750',-0.79996750,-0.26000488,0.00000000,29.30000916,0.26402777
'1:30.875',-0.79996750,-0.26000488,0.00000000,29.50004578,0.26402777
'1:31.000',-0.79996750,-0.26000488,0.00000000,29.30000916,0.26402777
'1:31.125',-0.79996750,-0.27001648,0.00000000,29.30000916,0.26402777
'1:31.250',-0.79996750,-0.26000488,0.00999786,29.30000916,0.26402777
'1:31.375',-0.79996750,-0.26000488,0.00000000,29.30000916,0.26402777
'1:31.500',-0.79996750,-0.26000488,0.00000000,29.30000916,0.26402777
'1:31.625',-0.79996750,-0.26000488,0.00000000,29.30000916,0.26402777
'1:31.750',-0.78999725,-0.26000488,0.00000000,29.30000916,0.26402777
'1:31.875',-0.80997177,-0.26000488,0.00000000,29.30000916,0.26402777
'1:32.000',-0.80997177,-0.26000488,0.00000000,29.30000916,0.26402777
'1:32.125',-0.79996750,-0.26000488,0.00000000,29.30000916,0.26402777
'1:32.250',-0.79996750,-0.26000488,0.00000000,29.30000916,0.26402777
'1:32.375',-0.78999725,-0.26000488,0.00000000,29.30000916,0.26402777
'1:32.500',-0.79996750,-0.26000488,0.00000000,29.30000916,0.26402777
'1:32.625',-0.78999725,-0.26000488,0.00000000,29.30000916,0.26402777
'1:32.750',-0.79996750,-0.25003037,0.00999786,29.30000916,0.26402777
'1:32.875',-0.79996750,-0.26000488,0.00000000,29.50004578,0.26402777
'1:33.000',-0.79996750,-0.26000488,0.00000000,29.30000916,0.26402777
'1:33.125',-0.78999725,-0.26000488,0.00000000,29.30000916,0.26402777
'1:33.250',-0.79996750,-0.26000488,0.00000000,29.30000916,0.26402777
'1:33.375',-0.79996750,-0.26000488,0.00000000,29.50004578,0.26402777
'1:33.500',-0.79996750,-0.26000488,0.00000000,29.30000916,0.26402777
'1:33.625',-0.80997177,-0.25003037,0.00000000,29.50004578,0.26402777
'1:33.750',-0.79996750,-0.27001648,0.00000000,29.50004578,0.26402777
'1:33.875',-0.79996750,-0.26000488,0.00000000,29.50004578,0.26402777
'1:34.000',-0.78999725,-0.26000488,0.00000000,29.30000916,0.26402777
'1:34.125',-0.78999725,-0.27001648,0.00000000,29.50004578,0.26100481
'1:34.250',-0.78999725,-0.27001648,0.00000000,29.30000916,0.26402777
'1:34.375',-0.78999725,-0.26000488,0.00000000,29.50004578,0.26402777
'1:34.500',-0.79996750,-0.26000488,0.00000000,29.50004578,0.26100481
'1:34.625',-0.79996750,-0.26000488,0.00000000,29.30000916,0.26402777
'1:34.750',-0.79996750,-0.26000488,0.00000000,29.50004578,0.26402777
'1:34.875',-0.79996750,-0.26000488,0.00000000,29.30000916,0.26402777
'1:35.000',-0.78999725,-0.26000488,0.00000000,29.50004578,0.26402777
'1:35.125',-0.79996750,-0.26000488,0.00000000,29.50004578,0.26402777
'1:35.250',-0.79996750,-0.26000488,0.00000000,29.50004578,0.26100481
'1:35.375',-0.79996750,-0.26000488,0.00000000,29.50004578,0.26402777
'1:35.500',-0.79996750,-0.26000488,0.00000000,29.50004578,0.26402777
'1:35.625',-0.80997177,-0.26000488,0.00000000,29.50004578,0.26402777
'1:35.750',-0.79996750,-0.26000488,0.00000000,29.30000916,0.26402777
'1:35.875',-0.79996750,-0.27001648,0.00000000,29.50004578,0.26402777
'1:36.000',-0.78999725,-0.26000488,0.00000000,29.50004578,0.26402777
'1:36.125',-0.79996750,-0.26000488,0.00999786,29.50004578,0.26100481
'1:36.250',-0.78999725,-0.26000488,0.00999786,29.50004578,0.26402777
'1:36.375',-0.79996750,-0.27001648,0.00000000,29.50004578,0.26100481
'1:36.500',-0.79996750,-0.26000488,0.00000000,29.50004578,0.26402777
'1:36.625',-0.79996750,-0.26000488,0.00000000,29.50004578,0.26402777
'1:36.750',-0.79996750,-0.26000488,0.00000000,29.30000916,0.26100481
'1:36.875',-0.79996750,-0.26000488,0.00000000,29.50004578,0.26402777
'1:37.000',-0.78999725,-0.27001648,0.00999786,29.50004578,0.26100481
'1:37.125',-0.79996750,-0.26000488,0.00999786,29.50004578,0.26100481
'1:37.250',-0.79996750,-0.27001648,0.00999786,29.50004578,0.26402777
'1:37.375',-0.79996750,-0.27001648,0.00999786,29.50004578,0.26402777
'1:37.500',-0.78999725,-0.27001648,0.00000000,29.50004578,0.26402777
'1:37.625',-0.79996750,-0.26000488,0.00000000,29.50004578,0.26402777
'1:37.750',-0.79996750,-0.26000488,0.00999786,29.50004578,0.26100481
'1:37.875',-0.80997177,-0.26000488,0.00000000,29.50004578,0.26402777
'1:38.000',-0.79996750,-0.26000488,0.00000000,29.50004578,0.26100481
'1:38.125',-0.78999725,-0.26000488,0.00000000,29.50004578,0.26200139
'1:38.250',-0.79996750,-0.26000488,0.00999786,29.50004578,0.26402777
'1:38.375',-0.79996750,-0.27001648,0.00000000,29.50004578,0.26100481
'1:38.500',-0.79996750,-0.27001648,0.00000000,29.50004578,0.26100481
'1:38.625',-0.78999725,-0.27001648,0.00999786,29.50004578,0.26100481
'1:38.750',-0.79996750,-0.26000488,0.00000000,29.50004578,0.26100481
'1:38.875',-0.79996750,-0.27001648,0.00000000,29.50004578,0.26402777
'1:39.000',-0.78999725,-0.27001648,0.00000000,29.50004578,0.26402777
'1:39.125',-0.79996750,-0.27001648,0.00000000,29.50004578,0.26100481
'1:39.250',-0.79996750,-0.26000488,0.00000000,29.50004578,0.26100481
'1:39.375',-0.79996750,-0.26000488,0.00000000,29.50004578,0.26200139
'1:39.500',-0.79996750,-0.26000488,0.00000000,29.50004578,0.26100481
'1:39.625',-0.78999725,-0.26000488,0.00000000,29.50004578,0.26100481
'1:39.750',-0.79996750,-0.26000488,0.00999786,29.50004578,0.26100481
'1:39.875',-0.78999725,-0.27001648,0.00000000,29.50004578,0.26100481
'1:40.000',-0.78999725,-0.26000488,0.00999786,29.50004578,0.25901164
'1:40.125',-0.79996750,-0.27001648,0.00000000,29.50004578,0.26402777
'1:40.250',-0.79996750,-0.26000488,0.00999786,29.50004578,0.26100481
'1:40.375',-0.80997177,-0.26000488,0.00000000,29.50004578,0.26100481
'1:40.500',-0.78999725,-0.26000488,0.00000000,29.50004578,0.26100481
'1:40.625',-0.78999725,-0.26000488,0.00000000,29.50004578,0.26100481
'1:40.750',-0.79996750,-0.27001648,0.00000000,29.50004578,0.26402777
'1:40.875',-0.79996750,-0.26000488,0.00000000,29.50004578,0.26100481
'1:41.000',-0.79996750,-0.27001648,0.00000000,29.50004578,0.25901164
'1:41.125',-0.79996750,-0.26000488,0.00000000,29.50004578,0.25901164
'1:41.250',-0.79996750,-0.27001648,0.00000000,29.50004578,0.25901164
'1:41.375',-0.79996750,-0.26000488,0.00000000,29.50004578,0.25901164
'1:41.500',-0.79996750,-0.26000488,0.00000000,29.50004578,0.26200139
'1:41.625',-0.79996750,-0.26000488,0.00000000,29.50004578,0.26100481
'1:41.750',-0.79996750,-0.27001648,0.00999786,29.50004578,0.25901164
'1:41.875',-0.79996750,-0.26000488,0.00000000,29.50004578,0.25901164
'1:42.000',-0.78999725,-0.27001648,0.00000000,29.50004578,0.25901164
'1:42.125',-0.78999725,-0.26000488,0.00999786,29.50004578,0.26402777
'1:42.250',-0.79996750,-0.27001648,0.00000000,29.50004578,0.25901164
'1:42.375',-0.79996750,-0.26000488,0.00999786,29.50004578,0.25901164
'1:42.500',-0.79996750,-0.27001648,0.00000000,29.50004578,0.26100481
'1:42.625',-0.78999725,-0.26000488,0.00000000,29.50004578,0.25901164
'1:42.750',-0.79996750,-0.26000488,0.00000000,29.50004578,0.25901164
'1:42.875',-0.78999725,-0.27001648,0.00999786,29.50004578,0.25901164
'1:43.000',-0.78999725,-0.26000488,0.00999786,29.50004578,0.25901164
'1:43.125',-0.79996750,-0.26000488,0.00999786,29.50004578,0.25901164
'1:43.250',-0.78999725,-0.26000488,0.00000000,29.50004578,0.25901164
'1:43.375',-0.79996750,-0.26000488,0.00000000,29.50004578,0.25901164
'1:43.500',-0.79996750,-0.26000488,0.00000000,29.50004578,0.25901164
'1:43.625',-0.79996750,-0.26000488,0.00000000,29.50004578,0.25901164
'1:43.750',-0.79996750,-0.26000488,0.00000000,29.50004578,0.25901164
'1:43.875',-0.78999725,-0.27001648,0.00000000,29.50004578,0.25901164
'1:44.000',-0.79996750,-0.26000488,0.00999786,29.50004578,0.25901164
'1:44.125',-0.80997177,-0.26000488,0.00000000,29.50004578,0.25901164
'1:44.250',-0.79996750,-0.26000488,0.00000000,29.50004578,0.25901164
'1:44.375',-0.79996750,-0.26000488,0.00000000,29.50004578,0.25901164
'1:44.500',-0.79996750,-0.25003037,0.00999786,29.50004578,0.25901164
'1:44.625',-0.79996750,-0.26000488,0.00000000,29.50004578,0.26100481
'1:44.750',-0.79996750,-0.27001648,0.00000000,29.50004578,0.25901164
'1:44.875',-0.78999725,-0.26000488,0.00000000,29.50004578,0.25901164
'1:45.000',-0.78999725,-0.26000488,0.00000000,29.50004578,0.25901164
'1:45.125',-0.79996750,-0.26000488,0.00999786,29.50004578,0.25901164
'1:45.250',-0.79996750,-0.26000488,0.00000000,29.50004578,0.25901164
'1:45.375',-0.79996750,-0.26000488,0.00999786,29.50004578,0.25901164
'1:45.500',-0.79996750,-0.27001648,0.00000000,29.50004578,0.25901164
'1:45.625',-0.79996750,-0.27001648,0.00999786,29.50004578,0.25901164
'1:45.750',-0.79996750,-0.26000488,0.00000000,29.50004578,0.25901164
'1:45.875',-0.79996750,-0.26000488,0.00000000,29.50004578,0.25901164
'1:46.000',-0.79996750,-0.26000488,0.00999786,29.50004578,0.25901164
'1:46.125',-0.78999725,-0.26000488,0.00000000,29.50004578,0.25901164
'1:46.250',-0.79996750,-0.26000488,0.00999786,29.50004578,0.25901164
'1:46.375',-0.79996750,-0.26000488,0.00999786,29.50004578,0.25901164
'1:46.500',-0.79996750,-0.27001648,0.00000000,29.50004578,0.25901164
'1:46.625',-0.80997177,-0.25003037,0.00000000,29.50004578,0.25901164
'1:46.750',-0.78999725,-0.27001648,0.00000000,29.50004578,0.25901164
'1:46.875',-0.79996750,-0.27001648,0.00000000,29.50004578,0.26100481
'1:47.000',-0.79996750,-0.26000488,0.00000000,29.50004578,0.25901164
'1:47.125',-0.79996750,-0.27001648,0.00000000,29.50004578,0.25901164
'1:47.250',-0.78999725,-0.26000488,0.00999786,29.50004578,0.25901164
'1:47.375',-0.79996750,-0.26000488,0.00000000,29.50004578,0.25901164
'1:47.500',-0.79996750,-0.26000488,0.00999786,29.50004578,0.25901164
'1:47.625',-0.79996750,-0.26000488,0.00000000,29.50004578,0.25901164
'1:47.750',-0.79996750,-0.27001648,0.00999786,29.50004578,0.26100481
'1:47.875',-0.79996750,-0.26000488,0.00000000,29.50004578,0.25901164
'1:48.000',-0.78999725,-0.26000488,0.00999786,29.50004578,0.26100481
'1:48.125',-0.78999725,-0.27001648,0.00999786,29.50004578,0.25901164
'1:48.250',-0.79996750,-0.27001648,0.00000000,29.50004578,0.26200139
'1:48.375',-0.79996750,-0.26000488,0.00999786,29.50004578,0.25901164
'1:48.500',-0.79996750,-0.27001648,0.00000000,29.50004578,0.25901164
'1:48.625',-0.79996750,-0.26000488,0.00000000,29.70000305,0.26200139
'1:48.750',-0.79996750,-0.26000488,0.00000000,29.50004578,0.25901164
'1:48.875',-0.79996750,-0.25003037,0.00000000,29.50004578,0.25901164
'1:49.000',-0.79996750,-0.26000488,0.00000000,29.50004578,0.26100481
'1:49.125',-0.79996750,-0.27001648,0.00000000,29.70000305,0.25901164
'1:49.250',-0.78999725,-0.26000488,0.00000000,29.70000305,0.25901164
'1:49.375',-0.79996750,-0.26000488,0.00000000,29.50004578,0.25901164
'1:49.500',-0.78999725,-0.27001648,0.00000000,29.50004578,0.25901164
'1:49.625',-0.79996750,-0.26000488,0.00999786,29.50004578,0.25901164
'1:49.750',-0.79996750,-0.26000488,0.00999786,29.50004578,0.25901164
'1:49.875',-0.79996750,-0.26000488,0.00999786,29.70000305,0.25901164
'1:50.000',-0.79996750,-0.27001648,0.00000000,29.50004578,0.26100481
'1:50.125',-0.79996750,-0.26000488,0.00000000,29.50004578,0.25901164
'1:50.250',-0.79996750,-0.26000488,0.00000000,29.70000305,0.25901164
'1:50.375',-0.79996750,-0.26000488,0.00999786,29.50004578,0.25901164
'1:50.500',-0.79996750,-0.27001648,0.00999786,29.70000305,0.25901164
'1:50.625',-0.79996750,-0.27001648,0.00999786,29.50004578,0.25901164
'1:50.750',-0.79996750,-0.26000488,0.00999786,29.70000305,0.25901164
'1:50.875',-0.79996750,-0.27001648,0.00000000,29.70000305,0.25901164
'1:51.000',-0.79996750,-0.27001648,0.00999786,29.50004578,0.25901164
'1:51.125',-0.79996750,-0.26000488,0.00000000,29.70000305,0.25901164
'1:51.250',-0.79996750,-0.26000488,0.00999786,29.70000305,0.25901164
'1:51.375',-0.79996750,-0.26000488,0.00000000,29.70000305,0.25901164
'1:51.500',-0.78999725,-0.27001648,0.00999786,29.70000305,0.25901164
'1:51.625',-0.79996750,-0.26000488,0.00999786,29.50004578,0.25901164
'1:51.750',-0.79996750,-0.27001648,0.00000000,29.70000305,0.25901164
'1:51.875',-0.79996750,-0.25003037,0.00999786,29.70000305,0.25901164
'1:52.000',-0.79996750,-0.27001648,0.00000000,29.70000305,0.25901164
'1:52.125',-0.78999725,-0.26000488,0.00000000,29.70000305,0.25901164
'1:52.250',-0.79996750,-0.26000488,0.00000000,29.70000305,0.25901164
'1:52.375',-0.79996750,-0.26000488,0.00999786,29.70000305,0.25901164
'1:52.500',-0.79996750,-0.25003037,0.00999786,29.70000305,0.25901164
'1:52.625',-0.80997177,-0.26000488,0.00000000,29.70000305,0.25901164
'1:52.750',-0.79996750,-0.27001648,0.00999786,29.50004578,0.25901164
'1:52.875',-0.79996750,-0.27001648,0.00000000,29.70000305,0.25901164
'1:53.000',-0.79996750,-0.26000488,0.00000000,29.70000305,0.25901164
'1:53.125',-0.79996750,-0.26000488,0.00000000,29.70000305,0.25901164
'1:53.250',-0.78999725,-0.27001648,0.00999786,29.70000305,0.25901164
'1:53.375',-0.79996750,-0.26000488,0.00999786,29.70000305,0.25901164
'1:53.500',-0.79996750,-0.26000488,0.00000000,29.70000305,0.25901164
'1:53.625',-0.80997177,-0.26000488,0.00999786,29.70000305,0.25901164
'1:53.750',-0.79996750,-0.26000488,0.00000000,29.70000305,0.25901164
'1:53.875',-0.79996750,-0.26000488,0.00000000,29.70000305,0.25901164
'1:54.000',-0.79996750,-0.27001648,0.00999786,29.70000305,0.25901164
'1:54.125',-0.79996750,-0.27001648,0.00000000,29.70000305,0.25901164
'1:54.250',-0.79996750,-0.26000488,0.00000000,29.70000305,0.25901164
'1:54.375',-0.78999725,-0.26000488,0.00000000,29.70000305,0.25901164
'1:54.500',-0.79996750,-0.26000488,0.00999786,29.70000305,0.25901164
'1:54.625',-0.78999725,-0.27001648,0.00000000,29.70000305,0.25901164
'1:54.750',-0.79996750,-0.26000488,0.00999786,29.70000305,0.25901164
'1:54.875',-0.79996750,-0.26000488,0.00000000,29.70000305,0.25901164
'1:55.000',-0.79996750,-0.26000488,0.00000000,29.70000305,0.25901164
'1:55.125',-0.78999725,-0.26000488,0.00999786,29.70000305,0.25901164
'1:55.250',-0.79996750,-0.26000488,0.00000000,29.70000305,0.25901164
'1:55.375',-0.78999725,-0.26000488,0.00000000,29.70000305,0.25901164
'1:55.500',-0.79996750,-0.26000488,0.00000000,29.70000305,0.25901164
'1:55.625',-0.79996750,-0.26000488,0.00000000,29.70000305,0.25901164
'1:55.750',-0.79996750,-0.26000488,0.00000000,29.70000305,0.25901164
'1:55.875',-0.79996750,-0.27001648,0.00999786,29.70000305,0.25901164
'1:56.000',-0.80997177,-0.26000488,0.00000000,29.70000305,0.25901164
'1:56.125',-0.78999725,-0.26000488,0.00999786,29.70000305,0.25901164
'1:56.250',-0.78999725,-0.26000488,0.00999786,29.70000305,0.25901164
'1:56.375',-0.79996750,-0.26000488,0.00999786,29.70000305,0.25901164
'1:56.500',-0.79996750,-0.26000488,0.00999786,29.70000305,0.25901164
'1:56.625',-0.78999725,-0.27001648,0.00000000,29.70000305,0.25901164
'1:56.750',-0.79996750,-0.27001648,0.00000000,29.70000305,0.25901164
'1:56.875',-0.79996750,-0.26000488,0.00999786,29.70000305,0.25901164
'1:57.000',-0.79996750,-0.26000488,0.00999786,29.70000305,0.25901164
'1:57.125',-0.79996750,-0.26000488,0.00999786,29.70000305,0.25901164
'1:57.250',-0.79996750,-0.27001648,0.00999786,29.70000305,0.25901164
'1:57.375',-0.79996750,-0.27001648,0.00000000,29.70000305,0.25901164
'1:57.500',-0.79996750,-0.26000488,0.00999786,29.70000305,0.25901164
'1:57.625',-0.79996750,-0.26000488,0.00000000,29.70000305,0.25901164
'1:57.750',-0.78999725,-0.26000488,0.00999786,29.70000305,0.25901164
'1:57.875',-0.78999725,-0.26000488,0.00999786,29.70000305,0.25901164
'1:58.000',-0.79996750,-0.26000488,0.00000000,29.70000305,0.25901164
'1:58.125',-0.79996750,-0.26000488,0.00999786,29.70000305,0.25901164
'1:58.250',-0.79996750,-0.26000488,0.00000000,29.70000305,0.25901164
'1:58.375',-0.79996750,-0.25003037,0.00999786,29.70000305,0.25901164
'1:58.500',-0.79996750,-0.26000488,0.00000000,29.70000305,0.25901164
'1:58.625',-0.78999725,-0.26000488,0.00999786,29.70000305,0.25901164
'1:58.750',-0.78999725,-0.26000488,0.00999786,29.70000305,0.25901164
'1:58.875',-0.79996750,-0.26000488,0.00000000,29.70000305,0.25901164
'1:59.000',-0.78999725,-0.27001648,0.00999786,29.70000305,0.25901164
'1:59.125',-0.79996750,-0.26000488,0.00999786,29.70000305,0.25901164
'1:59.250',-0.79996750,-0.26000488,0.00999786,29.70000305,0.25901164
'1:59.375',-0.79996750,-0.26000488,0.00999786,29.70000305,0.25901164
'1:59.500',-0.79996750,-0.26000488,0.00999786,29.70000305,0.25901164
'1:59.625',-0.79996750,-0.26000488,0.00999786,29.70000305,0.25901164
'1:59.750',-0.79996750,-0.27001648,0.00999786,29.70000305,0.25901164
'1:59.875',-0.79996750,-0.26000488,0.00999786,29.70000305,0.25901164
'2:00.000',-0.78999725,-0.26000488,0.00999786,29.70000305,0.25901164
'2:00.125',-0.79996750,-0.26000488,0.00999786,29.70000305,0.25901164
'2:00.250',-0.78999725,-0.26000488,0.00000000,29.70000305,0.25901164
'2:00.375',-0.79996750,-0.26000488,0.00000000,29.70000305,0.25901164
'2:00.500',-0.79996750,-0.26000488,0.00000000,29.70000305,0.25901164
'2:00.625',-0.78999725,-0.26000488,0.00999786,29.70000305,0.25901164
'2:00.750',-0.79996750,-0.26000488,0.00999786,29.70000305,0.25901164
'2:00.875',-0.79996750,-0.26000488,0.00999786,29.70000305,0.25901164
'2:01.000',-0.79996750,-0.26000488,0.00999786,29.70000305,0.25901164
'2:01.125',-0.79996750,-0.26000488,0.00000000,29.70000305,0.25901164
'2:01.250',-0.79996750,-0.26000488,0.00999786,29.70000305,0.25901164
'2:01.375',-0.79996750,-0.26000488,0.00000000,29.70000305,0.25901164
'2:01.500',-0.78999725,-0.27001648,0.00000000,29.70000305,0.25901164
'2:01.625',-0.79996750,-0.26000488,0.00000000,29.90003967,0.25901164
'2:01.750',-0.78999725,-0.26000488,0.00999786,29.70000305,0.25901164
'2:01.875',-0.79996750,-0.26000488,0.00999786,29.70000305,0.25901164
'2:02.000',-0.79996750,-0.26000488,0.00999786,29.70000305,0.25901164
'2:02.125',-0.79996750,-0.26000488,0.00999786,29.70000305,0.25901164
'2:02.250',-0.79996750,-0.26000488,0.00000000,29.70000305,0.25901164
'2:02.375',-0.78999725,-0.26000488,0.00999786,29.70000305,0.25901164
'2:02.500',-0.79996750,-0.26000488,0.00999786,29.70000305,0.25901164
'2:02.625',-0.79996750,-0.26000488,0.00999786,29.70000305,0.25901164
'2:02.750',-0.79996750,-0.26000488,0.00999786,29.70000305,0.25901164
'2:02.875',-0.79996750,-0.26000488,0.00000000,29.70000305,0.25901164
'2:03.000',-0.78999725,-0.26000488,0.00999786,29.70000305,0.25901164
'2:03.125',-0.78999725,-0.26000488,0.00999786,29.70000305,0.25901164
'2:03.250',-0.79996750,-0.26000488,0.00999786,29.70000305,0.25901164
'2:03.375',-0.79996750,-0.27001648,0.00000000,29.70000305,0.25901164
'2:03.500',-0.79996750,-0.26000488,0.00999786,29.70000305,0.25901164
'2:03.625',-0.79996750,-0.26000488,0.00000000,29.70000305,0.25901164
'2:03.750',-0.79996750,-0.26000488,0.00999786,29.70000305,0.25901164
'2:03.875',-0.79996750,-0.26000488,0.00999786,29.70000305,0.25901164
'2:04.000',-0.78999725,-0.26000488,0.00999786,29.70000305,0.25901164
'2:04.125',-0.79996750,-0.26000488,0.00999786,29.70000305,0.25901164
'2:04.250',-0.79996750,-0.26000488,0.00000000,29.70000305,0.25901164
'2:04.375',-0.79996750,-0.27001648,0.00999786,29.70000305,0.25901164
'2:04.500',-0.80997177,-0.26000488,0.00000000,29.70000305,0.25901164
'2:04.625',-0.78999725,-0.25003037,0.00000000,29.90003967,0.25901164
'2:04.750',-0.79996750,-0.26000488,0.00999786,29.90003967,0.25901164
'2:04.875',-0.79996750,-0.26000488,0.00999786,29.70000305,0.25901164
'2:05.000',-0.79996750,-0.26000488,0.00999786,29.70000305,0.25901164
'2:05.125',-0.78999725,-0.26000488,0.00999786,29.70000305,0.25901164
'2:05.250',-0.79996750,-0.27001648,0.00999786,29.70000305,0.25901164
'2:05.375',-0.79996750,-0.26000488,0.00000000,29.90003967,0.25901164
'2:05.500',-0.79996750,-0.26000488,0.00999786,29.70000305,0.25901164
'2:05.625',-0.78999725,-0.26000488,0.00000000,29.90003967,0.25901164
'2:05.750',-0.79996750,-0.26000488,0.00999786,29.70000305,0.25901164
'2:05.875',-0.79996750,-0.27001648,0.00999786,29.70000305,0.25901164
'2:06.000',-0.79996750,-0.26000488,0.00999786,29.90003967,0.25901164
'2:06.125',-0.79996750,-0.26000488,0.00999786,29.90003967,0.25901164
'2:06.250',-0.79996750,-0.26000488,0.00999786,29.70000305,0.25901164
'2:06.375',-0.79996750,-0.26000488,0.00000000,29.70000305,0.25901164
'2:06.500',-0.78999725,-0.26000488,0.00000000,29.90003967,0.25901164
'2:06.625',-0.79996750,-0.26000488,0.00000000,29.90003967,0.25901164
'2:06.750',-0.78999725,-0.25003037,0.00999786,29.90003967,0.25901164
'2:06.875',-0.79996750,-0.26000488,0.00999786,29.90003967,0.25901164
'2:07.000',-0.79996750,-0.26000488,0.00999786,29.90003967,0.26100481
'2:07.125',-0.79996750,-0.26000488,0.00999786,29.90003967,0.25901164
'2:07.250',-0.79996750,-0.26000488,0.00999786,29.90003967,0.25901164
'2:07.375',-0.79996750,-0.26000488,0.00999786,29.70000305,0.25901164
'2:07.500',-0.79996750,-0.26000488,0.00000000,29.70000305,0.25901164
'2:07.625',-0.79996750,-0.26000488,0.00999786,29.70000305,0.25901164
'2:07.750',-0.79996750,-0.26000488,0.00999786,29.90003967,0.25901164
'2:07.875',-0.79996750,-0.26000488,0.00999786,29.70000305,0.25901164
'2:08.000',-0.79996750,-0.26000488,0.00999786,29.90003967,0.26200139
'2:08.125',-0.79996750,-0.26000488,0.00999786,29.90003967,0.26100481
'2:08.250',-0.79996750,-0.26000488,0.00999786,29.90003967,0.25901164
'2:08.375',-0.79996750,-0.26000488,0.00000000,29.90003967,0.25901164
'2:08.500',-0.78999725,-0.25003037,0.00000000,29.90003967,0.25901164
'2:08.625',-0.78999725,-0.26000488,0.00999786,29.90003967,0.25901164
'2:08.750',-0.78999725,-0.26000488,0.00999786,29.90003967,0.25901164
'2:08.875',-0.78999725,-0.26000488,0.00999786,29.90003967,0.25901164
'2:09.000',-0.79996750,-0.26000488,0.00999786,29.90003967,0.25901164
'2:09.125',-0.79996750,-0.26000488,0.00999786,29.90003967,0.25901164
'2:09.250',-0.79996750,-0.26000488,0.00999786,29.90003967,0.25901164
'2:09.375',-0.79996750,-0.26000488,0.00999786,29.90003967,0.25901164
'2:09.500',-0.78999725,-0.26000488,0.00000000,29.90003967,0.26100481
'2:09.625',-0.79996750,-0.26000488,0.00999786,29.90003967,0.25901164
'2:09.750',-0.79996750,-0.26000488,0.00000000,29.90003967,0.25901164
'2:09.875',-0.79996750,-0.26000488,0.00999786,29.90003967,0.25901164
'2:10.000',-0.79996750,-0.26000488,0.00999786,29.90003967,0.26100481
'2:10.125',-0.79996750,-0.26000488,0.00999786,29.90003967,0.26200139
'2:10.250',-0.79996750,-0.26000488,0.00999786,29.90003967,0.25901164
'2:10.375',-0.80997177,-0.26000488,0.00999786,29.90003967,0.25901164
'2:10.500',-0.79996750,-0.26000488,0.00999786,29.90003967,0.25901164
'2:10.625',-0.79996750,-0.26000488,0.00999786,29.90003967,0.25901164
'2:10.750',-0.78999725,-0.26000488,0.00999786,29.90003967,0.26200139
'2:10.875',-0.79996750,-0.26000488,0.00999786,29.90003967,0.25901164
'2:11.000',-0.79996750,-0.26000488,0.00999786,29.90003967,0.25901164
'2:11.125',-0.79996750,-0.26000488,0.00000000,29.90003967,0.26100481
'2:11.250',-0.79996750,-0.26000488,0.00000000,29.90003967,0.25901164
'2:11.375',-0.79996750,-0.25003037,0.00999786,29.90003967,0.26100481
'2:11.500',-0.79996750,-0.26000488,0.00999786,29.90003967,0.25901164
'2:11.625',-0.79996750,-0.26000488,0.00999786,29.90003967,0.26100481
'2:11.750',-0.78999725,-0.26000488,0.00999786,29.90003967,0.25901164
'2:11.875',-0.79996750,-0.26000488,0.00999786,29.90003967,0.26100481
'2:12.000',-0.80997177,-0.27001648,0.00000000,29.90003967,0.25901164
'2:12.125',-0.79996750,-0.26000488,0.00999786,29.90003967,0.25901164
'2:12.250',-0.79996750,-0.26000488,0.00999786,29.90003967,0.26100481
'2:12.375',-0.79996750,-0.26000488,0.00999786,29.90003967,0.26200139
'2:12.500',-0.78999725,-0.26000488,0.00999786,29.90003967,0.26402777
'2:12.625',-0.78999725,-0.26000488,0.00999786,29.90003967,0.26200139
'2:12.750',-0.79996750,-0.26000488,0.00999786,29.90003967,0.25901164
'2:12.875',-0.80997177,-0.26000488,0.00000000,29.90003967,0.25901164
'2:13.000',-0.79996750,-0.26000488,0.00999786,29.90003967,0.25901164
'2:13.125',-0.79996750,-0.26000488,0.00999786,29.90003967,0.25901164
'2:13.250',-0.79996750,-0.26000488,0.00999786,29.90003967,0.26100481
'2:13.375',-0.78999725,-0.26000488,0.00999786,29.90003967,0.25901164
'2:13.500',-0.79996750,-0.26000488,0.00999786,29.90003967,0.26200139
'2:13.625',-0.78999725,-0.25003037,0.00000000,29.90003967,0.25901164
'2:13.750',-0.79996750,-0.26000488,0.00000000,29.90003967,0.25901164
'2:13.875',-0.78999725,-0.26000488,0.00999786,29.90003967,0.26200139
'2:14.000',-0.78999725,-0.26000488,0.00999786,29.90003967,0.25901164
'2:14.125',-0.78999725,-0.27001648,0.00999786,29.90003967,0.25901164
'2:14.250',-0.79996750,-0.26000488,0.00999786,29.90003967,0.25901164
'2:14.375',-0.79996750,-0.27001648,0.00999786,29.90003967,0.25901164
'2:14.500',-0.79996750,-0.26000488,0.00999786,29.90003967,0.26402777
'2:14.625',-0.79996750,-0.27001648,0.00000000,29.90003967,0.26100481
'2:14.750',-0.79996750,-0.26000488,0.00999786,29.90003967,0.26100481
'2:14.875',-0.79996750,-0.26000488,0.00999786,29.90003967,0.26100481
'2:15.000',-0.79996750,-0.25003037,0.00000000,29.90003967,0.26100481
'2:15.125',-0.79996750,-0.26000488,0.00999786,29.90003967,0.25901164
'2:15.250',-0.80997177,-0.25003037,0.00999786,29.90003967,0.26100481
'2:15.375',-0.78999725,-0.26000488,0.00999786,29.90003967,0.26100481
'2:15.500',-0.78999725,-0.26000488,0.00999786,29.90003967,0.26100481
'2:15.625',-0.78999725,-0.26000488,0.00999786,29.90003967,0.25901164
'2:15.750',-0.79996750,-0.27001648,0.00999786,29.90003967,0.26200139
'2:15.875',-0.79996750,-0.27001648,0.00000000,29.90003967,0.26100481
'2:16.000',-0.79996750,-0.26000488,0.00999786,29.90003967,0.26100481
'2:16.125',-0.79996750,-0.26000488,0.00999786,29.90003967,0.26100481
'2:16.250',-0.79996750,-0.26000488,0.00000000,29.90003967,0.26100481
'2:16.375',-0.78999725,-0.26000488,0.00999786,29.90003967,0.26100481
'2:16.500',-0.79996750,-0.26000488,0.00999786,29.90003967,0.26402777
'2:16.625',-0.79996750,-0.26000488,0.00999786,29.90003967,0.26402777
'2:16.750',-0.80997177,-0.26000488,0.00999786,29.90003967,0.25901164
'2:16.875',-0.78999725,-0.26000488,0.00999786,29.90003967,0.26100481
'2:17.000',-0.79996750,-0.26000488,0.00999786,29.90003967,0.26100481
'2:17.125',-0.79996750,-0.26000488,0.00999786,29.90003967,0.25901164
'2:17.250',-0.79996750,-0.26000488,0.00000000,29.90003967,0.25901164
'2:17.375',-0.78999725,-0.26000488,0.00999786,29.90003967,0.25901164
'2:17.500',-0.78999725,-0.27001648,0.00999786,29.90003967,0.26100481
'2:17.625',-0.78999725,-0.26000488,0.00999786,29.90003967,0.26100481
'2:17.750',-0.79996750,-0.26000488,0.00999786,29.90003967,0.26100481
'2:17.875',-0.79996750,-0.26000488,0.00999786,29.90003967,0.25901164
'2:18.000',-0.78999725,-0.26000488,0.00999786,29.90003967,0.25901164
'2:18.125',-0.78999725,-0.26000488,0.00999786,29.90003967,0.25901164
'2:18.250',-0.78999725,-0.26000488,0.00999786,29.90003967,0.25901164
'2:18.375',-0.79996750,-0.26000488,0.00999786,29.90003967,0.25901164
'2:18.500',-0.79996750,-0.27001648,0.00999786,29.90003967,0.26100481
'2:18.625',-0.79996750,-0.26000488,0.00999786,29.90003967,0.25901164
'2:18.750',-0.78999725,-0.26000488,0.00000000,29.90003967,0.26200139
'2:18.875',-0.78999725,-0.26000488,0.00999786,29.90003967,0.25901164
'2:19.000',-0.79996750,-0.26000488,0.00999786,29.90003967,0.26402777
'2:19.125',-0.78999725,-0.26000488,0.00999786,29.90003967,0.26100481
'2:19.250',-0.79996750,-0.26000488,0.00999786,29.90003967,0.25901164
'2:19.375',-0.79996750,-0.27001648,0.00999786,29.90003967,0.25901164
'2:19.500',-0.79996750,-0.26000488,0.00000000,29.90003967,0.26100481
'2:19.625',-0.79996750,-0.26000488,0.00000000,29.90003967,0.25901164
'2:19.750',-0.78999725,-0.26000488,0.00999786,29.90003967,0.25901164
'2:19.875',-0.79996750,-0.26000488,0.00999786,29.90003967,0.26100481
'2:20.000',-0.78999725,-0.26000488,0.00000000,29.90003967,0.26402777
'2:20.125',-0.77999298,-0.27001648,0.00000000,29.90003967,0.25901164
'2:20.250',-0.79996750,-0.27001648,0.00999786,29.90003967,0.26402777
'2:20.375',-0.79996750,-0.27001648,0.00999786,29.90003967,0.25901164
'2:20.500',-0.79996750,-0.27001648,0.00000000,30.10007630,0.26100481
'2:20.625',-0.78999725,-0.27001648,0.00999786,29.90003967,0.26402777
'2:20.750',-0.78999725,-0.27001648,0.00999786,29.90003967,0.25901164
'2:20.875',-0.78999725,-0.27001648,0.00999786,29.90003967,0.26402777
'2:21.000',-0.79996750,-0.27001648,0.00999786,29.90003967,0.26100481
'2:21.125',-0.79996750,-0.27001648,0.00999786,30.10007630,0.26100481
'2:21.250',-0.79996750,-0.27001648,0.00000000,29.90003967,0.25901164
'2:21.375',-0.77999298,-0.28002808,0.00999786,29.90003967,0.25901164
'2:21.500',-0.79996750,-0.27001648,0.00999786,29.90003967,0.25901164
'2:21.625',-0.79996750,-0.27001648,0.00000000,29.90003967,0.26100481
'2:21.750',-0.79996750,-0.27001648,0.00999786,29.90003967,0.26100481
'2:21.875',-0.79996750,-0.27001648,0.00999786,29.90003967,0.25901164
'2:22.000',-0.78999725,-0.27001648,0.00999786,29.90003967,0.25901164
'2:22.125',-0.79996750,-0.27001648,0.00999786,30.10007630,0.26100481
'2:22.250',-0.79996750,-0.27001648,0.00999786,29.90003967,0.25901164
'2:22.375',-0.79996750,-0.27001648,0.00000000,29.90003967,0.26100481
'2:22.500',-0.79996750,-0.27001648,0.00999786,29.90003967,0.26100481
'2:22.625',-0.79996750,-0.27001648,0.00999786,29.90003967,0.26402777
'2:22.750',-0.79996750,-0.27001648,0.00999786,30.10007630,0.25901164
'2:22.875',-0.79996750,-0.27001648,0.00999786,29.90003967,0.26100481
'2:23.000',-0.79996750,-0.27001648,0.00999786,29.90003967,0.26100481
'2:23.125',-0.79996750,-0.27001648,0.00999786,30.10007630,0.26100481
'2:23.250',-0.80997177,-0.27001648,0.00000000,29.90003967,0.26402777
'2:23.375',-0.78999725,-0.27001648,0.00999786,29.90003967,0.26100481
'2:23.500',-0.79996750,-0.27001648,0.00999786,30.10007630,0.26100481
'2:23.625',-0.78999725,-0.27001648,0.00999786,29.90003967,0.26100481
'2:23.750',-0.79996750,-0.27001648,0.00999786,30.10007630,0.26100481
'2:23.875',-0.79996750,-0.28002808,0.00999786,29.90003967,0.25901164
'2:24.000',-0.78999725,-0.27001648,0.00999786,30.10007630,0.26200139
'2:24.125',-0.79996750,-0.27001648,0.00999786,30.10007630,0.26100481
'2:24.250',-0.79996750,-0.27001648,0.00999786,29.90003967,0.26100481
'2:24.375',-0.78999725,-0.27001648,0.00999786,30.10007630,0.26100481
'2:24.500',-0.79996750,-0.28002808,0.00999786,30.10007630,0.26100481
'2:24.625',-0.79996750,-0.27001648,0.00999786,30.10007630,0.26100481
'2:24.750',-0.79996750,-0.28002808,0.00999786,30.10007630,0.25901164
'2:24.875',-0.78999725,-0.28002808,0.00999786,29.90003967,0.25901164
'2:25.000',-0.78999725,-0.27001648,0.00999786,30.10007630,0.26200139
'2:25.125',-0.78999725,-0.27001648,0.00999786,30.10007630,0.26100481
'2:25.250',-0.78999725,-0.28002808,0.00999786,30.10007630,0.26100481
'2:25.375',-0.79996750,-0.27001648,0.00999786,29.90003967,0.26402777
'2:25.500',-0.79996750,-0.28002808,0.00999786,29.90003967,0.26100481
'2:25.625',-0.78999725,-0.27001648,0.00999786,29.90003967,0.26402777
'2:25.750',-0.78999725,-0.28002808,0.00999786,30.10007630,0.25901164
'2:25.875',-0.79996750,-0.27001648,0.00999786,30.10007630,0.26100481
'2:26.000',-0.78999725,-0.27001648,0.00000000,30.10007630,0.26402777
'2:26.125',-0.79996750,-0.28002808,0.00999786,30.10007630,0.26100481
'2:26.250',-0.78999725,-0.28002808,0.00999786,29.90003967,0.26200139
'2:26.375',-0.79996750,-0.28002808,0.00999786,30.10007630,0.26100481
'2:26.500',-0.79996750,-0.28002808,0.00999786,30.10007630,0.26100481
'2:26.625',-0.79996750,-0.27001648,0.00999786,30.10007630,0.25901164
'2:26.750',-0.79996750,-0.28002808,0.00000000,30.10007630,0.26100481
'2:26.875',-0.78999725,-0.27001648,0.00999786,30.10007630,0.26100481
'2:27.000',-0.78999725,-0.28002808,0.00999786,29.90003967,0.26402777
'2:27.125',-0.79996750,-0.28002808,0.00999786,30.10007630,0.25901164
'2:27.250',-0.79996750,-0.27001648,0.00999786,30.10007630,0.26100481
'2:27.375',-0.79996750,-0.28002808,0.00999786,30.10007630,0.26100481
'2:27.500',-0.79996750,-0.27001648,0.00999786,30.10007630,0.26100481
'2:27.625',-0.79996750,-0.27001648,0.00999786,29.90003967,0.26100481
'2:27.750',-0.79996750,-0.28002808,0.00000000,30.10007630,0.26100481
'2:27.875',-0.79996750,-0.27001648,0.00000000,30.10007630,0.26100481
'2:28.000',-0.78999725,-0.28002808,0.00999786,30.10007630,0.25901164
'2:28.125',-0.79996750,-0.27001648,0.00999786,30.10007630,0.26100481
'2:28.250',-0.79996750,-0.27001648,0.00999786,30.10007630,0.26100481
'2:28.375',-0.78999725,-0.28002808,0.00999786,30.10007630,0.26100481
'2:28.500',-0.77999298,-0.27001648,0.00999786,30.10007630,0.26100481
'2:28.625',-0.79996750,-0.28002808,0.00999786,30.10007630,0.26100481
'2:28.750',-0.78999725,-0.27001648,0.00999786,30.10007630,0.26402777
'2:28.875',-0.79996750,-0.28002808,0.00999786,30.10007630,0.25901164
'2:29.000',-0.78999725,-0.27001648,0.00999786,30.10007630,0.26100481
'2:29.125',-0.78999725,-0.27001648,0.00999786,30.10007630,0.26402777
'2:29.250',-0.79996750,-0.28002808,0.00000000,30.10007630,0.26100481
'2:29.375',-0.79996750,-0.27001648,0.00999786,30.10007630,0.26100481
'2:29.500',-0.78999725,-0.28002808,0.00999786,30.10007630,0.26100481
'2:29.625',-0.77999298,-0.27001648,0.00999786,30.10007630,0.26402777
'2:29.750',-0.78999725,-0.27001648,0.00999786,30.10007630,0.26100481
'2:29.875',-0.80997177,-0.27001648,0.00999786,30.10007630,0.26402777
'2:30.000',-0.78999725,-0.28002808,0.00999786,30.10007630,0.26100481
'2:30.125',-0.79996750,-0.28002808,0.00999786,30.10007630,0.26100481
'2:30.250',-0.78999725,-0.29000259,0.00999786,30.10007630,0.26402777
'2:30.375',-0.79996750,-0.27001648,0.00999786,30.10007630,0.26100481
'2:30.500',-0.79996750,-0.28002808,0.00999786,30.10007630,0.26100481
'2:30.625',-0.79996750,-0.27001648,0.00999786,30.10007630,0.26100481
'2:30.750',-0.79996750,-0.28002808,0.00999786,30.10007630,0.26100481
'2:30.875',-0.79996750,-0.28002808,0.00999786,30.10007630,0.26100481
'2:31.000',-0.79996750,-0.27001648,0.00999786,30.10007630,0.26100481
'2:31.125',-0.78999725,-0.28002808,0.00999786,30.10007630,0.26100481
'2:31.250',-0.79996750,-0.27001648,0.00999786,30.10007630,0.26402777
'2:31.375',-0.79996750,-0.28002808,0.00999786,30.10007630,0.26402777
'2:31.500',-0.79996750,-0.28002808,0.00999786,30.10007630,0.26402777
'2:31.625',-0.79996750,-0.28002808,0.00999786,30.10007630,0.26402777
'2:31.750',-0.79996750,-0.27001648,0.00999786,30.10007630,0.26100481
'2:31.875',-0.79996750,-0.27001648,0.00999786,30.10007630,0.26402777
'2:32.000',-0.78999725,-0.28002808,0.00999786,30.10007630,0.26402777
'2:32.125',-0.78999725,-0.28002808,0.00999786,30.10007630,0.26402777
'2:32.250',-0.78999725,-0.28002808,0.00999786,30.10007630,0.26100481
'2:32.375',-0.78999725,-0.28002808,0.00999786,30.10007630,0.26402777
'2:32.500',-0.79996750,-0.27001648,0.00999786,30.10007630,0.26100481
'2:32.625',-0.79996750,-0.28002808,0.00999786,30.10007630,0.26402777
'2:32.750',-0.79996750,-0.27001648,0.00999786,30.10007630,0.26402777
'2:32.875',-0.78999725,-0.27001648,0.00999786,30.10007630,0.26402777
'2:33.000',-0.78999725,-0.27001648,0.00999786,30.10007630,0.26402777
'2:33.125',-0.78999725,-0.28002808,0.00999786,30.10007630,0.26402777
'2:33.250',-0.78999725,-0.27001648,0.00999786,30.10007630,0.26100481
'2:33.375',-0.79996750,-0.27001648,0.00999786,30.10007630,0.26402777
'2:33.500',-0.79996750,-0.28002808,0.00999786,30.10007630,0.26100481
'2:33.625',-0.78999725,-0.28002808,0.00999786,30.10007630,0.26100481
'2:33.750',-0.78999725,-0.28002808,0.00999786,30.10007630,0.26402777
'2:33.875',-0.79996750,-0.27001648,0.00999786,30.10007630,0.26402777
'2:34.000',-0.78999725,-0.28002808,0.00999786,30.10007630,0.26402777
'2:34.125',-0.79996750,-0.28002808,0.00000000,30.10007630,0.26100481
'2:34.250',-0.79996750,-0.28002808,0.00999786,30.10007630,0.26402777
'2:34.375',-0.78999725,-0.27001648,0.00999786,30.10007630,0.26402777
'2:34.500',-0.79996750,-0.28002808,0.00999786,30.10007630,0.26402777
'2:34.625',-0.79996750,-0.28002808,0.00999786,30.10007630,0.26402777
'2:34.750',-0.79996750,-0.28002808,0.00999786,30.10007630,0.26402777
'2:34.875',-0.78999725,-0.27001648,0.00999786,30.10007630,0.26402777
'2:35.000',-0.79996750,-0.27001648,0.00999786,30.10007630,0.26402777
'2:35.125',-0.79996750,-0.28002808,0.00999786,30.10007630,0.26402777
'2:35.250',-0.79996750,-0.27001648,0.00999786,30.10007630,0.26402777
'2:35.375',-0.78999725,-0.27001648,0.00999786,30.10007630,0.26402777
'2:35.500',-0.79996750,-0.27001648,0.00000000,30.10007630,0.26402777
'2:35.625',-0.79996750,-0.27001648,0.00999786,30.10007630,0.26402777
'2:35.750',-0.78999725,-0.27001648,0.00999786,30.10007630,0.26100481
'2:35.875',-0.79996750,-0.27001648,0.00999786,30.10007630,0.26402777
'2:36.000',-0.79996750,-0.27001648,0.00999786,30.10007630,0.26402777
'2:36.125',-0.79996750,-0.28002808,0.00999786,30.10007630,0.26402777
'2:36.250',-0.78999725,-0.28002808,0.00999786,30.10007630,0.26402777
'2:36.375',-0.80997177,-0.28002808,0.00000000,30.10007630,0.26402777
'2:36.500',-0.78999725,-0.28002808,0.00999786,30.10007630,0.26402777
'2:36.625',-0.79996750,-0.28002808,0.00999786,30.10007630,0.26402777
'2:36.750',-0.78999725,-0.27001648,0.01999573,30.10007630,0.26402777
'2:36.875',-0.79996750,-0.27001648,0.00999786,30.10007630,0.26100481
'2:37.000',-0.79996750,-0.27001648,0.00999786,30.10007630,0.26100481
'2:37.125',-0.79996750,-0.27001648,0.00999786,30.10007630,0.26402777
'2:37.250',-0.79996750,-0.27001648,0.00999786,30.10007630,0.26402777
'2:37.375',-0.78999725,-0.27001648,0.00999786,30.10007630,0.26100481
'2:37.500',-0.78999725,-0.28002808,0.00999786,30.10007630,0.26100481
'2:37.625',-0.78999725,-0.28002808,0.00999786,30.10007630,0.26402777
'2:37.750',-0.79996750,-0.28002808,0.00999786,30.10007630,0.26402777
'2:37.875',-0.79996750,-0.28002808,0.00999786,30.10007630,0.26402777
'2:38.000',-0.78999725,-0.28002808,0.00999786,30.10007630,0.26100481
'2:38.125',-0.79996750,-0.28002808,0.00999786,30.10007630,0.26100481
'2:38.250',-0.78999725,-0.28002808,0.00999786,30.10007630,0.26402777
'2:38.375',-0.78999725,-0.28002808,0.00999786,30.10007630,0.26402777
'2:38.500',-0.78999725,-0.27001648,0.00000000,30.40001221,0.26402777
'2:38.625',-0.78999725,-0.27001648,0.00000000,30.40001221,0.26100481
'2:38.750',-0.79996750,-0.27001648,0.00000000,30.40001221,0.26100481
'2:38.875',-0.79996750,-0.28002808,0.00999786,30.40001221,0.26402777
'2:39.000',-0.80997177,-0.27001648,0.00999786,30.10007630,0.26100481
'2:39.125',-0.79996750,-0.28002808,0.00999786,30.10007630,0.26402777
'2:39.250',-0.78999725,-0.27001648,0.00999786,30.10007630,0.26100481
'2:39.375',-0.79996750,-0.27001648,0.00999786,30.10007630,0.26402777
'2:39.500',-0.78999725,-0.28002808,0.00999786,30.10007630,0.26402777
'2:39.625',-0.79996750,-0.28002808,0.00999786,30.10007630,0.26402777
'2:39.750',-0.79996750,-0.28002808,0.00999786,30.10007630,0.26100481
'2:39.875',-0.79996750,-0.28002808,0.00999786,30.10007630,0.26402777
'2:40.000',-0.80997177,-0.27001648,0.00999786,30.10007630,0.26402777
'2:40.125',-0.79996750,-0.28002808,0.00999786,30.10007630,0.26100481
'2:40.250',-0.79996750,-0.28002808,0.00999786,30.10007630,0.26100481
'2:40.375',-0.79996750,-0.27001648,0.00999786,30.10007630,0.26402777
'2:40.500',-0.79996750,-0.28002808,0.00999786,30.10007630,0.26402777
'2:40.625',-0.79996750,-0.27001648,0.00999786,30.40001221,0.26402777
'2:40.750',-0.79996750,-0.27001648,0.00999786,30.10007630,0.26402777
'2:40.875',-0.79996750,-0.28002808,0.00999786,30.10007630,0.26402777
'2:41.000',-0.78999725,-0.27001648,0.00999786,30.10007630,0.26402777
'2:41.125',-0.79996750,-0.28002808,0.00999786,30.10007630,0.26402777
'2:41.250',-0.79996750,-0.27001648,0.00999786,30.40001221,0.26402777
'2:41.375',-0.79996750,-0.27001648,0.00999786,30.40001221,0.26402777
'2:41.500',-0.79996750,-0.27001648,0.00999786,30.10007630,0.26100481
'2:41.625',-0.78999725,-0.27001648,0.01999573,30.10007630,0.26100481
'2:41.750',-0.78999725,-0.27001648,0.00999786,30.10007630,0.26402777
'2:41.875',-0.78999725,-0.28002808,0.00999786,30.10007630,0.26402777
'2:42.000',-0.80997177,-0.27001648,0.00999786,30.10007630,0.26100481
'2:42.125',-0.79996750,-0.27001648,0.00999786,30.10007630,0.26402777
'2:42.250',-0.79996750,-0.27001648,0.00999786,30.10007630,0.26402777
'2:42.375',-0.79996750,-0.27001648,0.00999786,30.10007630,0.26402777
'2:42.500',-0.78999725,-0.27001648,0.00999786,30.10007630,0.26402777
'2:42.625',-0.79996750,-0.27001648,0.01999573,30.10007630,0.26402777
'2:42.750',-0.78999725,-0.28002808,0.00999786,30.10007630,0.26402777
'2:42.875',-0.78999725,-0.28002808,0.00999786,30.40001221,0.26402777
'2:43.000',-0.78999725,-0.27001648,0.00999786,30.10007630,0.26100481
'2:43.125',-0.78999725,-0.27001648,0.00999786,30.40001221,0.26402777
'2:43.250',-0.79996750,-0.27001648,0.00000000,30.10007630,0.26402777
'2:43.375',-0.78999725,-0.27001648,0.00999786,30.10007630,0.26402777
'2:43.500',-0.78999725,-0.27001648,0.01999573,30.10007630,0.26402777
'2:43.625',-0.78999725,-0.27001648,0.00999786,30.40001221,0.26402777
'2:43.750',-0.78999725,-0.28002808,0.00999786,30.10007630,0.26402777
'2:43.875',-0.78999725,-0.28002808,0.00999786,30.10007630,0.26100481
'2:44.000',-0.79996750,-0.27001648,0.00999786,30.40001221,0.26402777
'2:44.125',-0.79996750,-0.27001648,0.00000000,30.10007630,0.26402777
'2:44.250',-0.79996750,-0.27001648,0.00999786,30.10007630,0.26100481
'2:44.375',-0.79996750,-0.28002808,0.00999786,30.40001221,0.26402777
'2:44.500',-0.78999725,-0.28002808,0.00999786,30.40001221,0.26100481
'2:44.625',-0.78999725,-0.28002808,0.00999786,30.40001221,0.26402777
'2:44.750',-0.78999725,-0.28002808,0.00999786,30.40001221,0.26100481
'2:44.875',-0.79996750,-0.28002808,0.00999786,30.40001221,0.26402777
'2:45.000',-0.79996750,-0.27001648,0.00000000,30.40001221,0.26402777
'2:45.125',-0.78999725,-0.28002808,0.00999786,30.10007630,0.26402777
'2:45.250',-0.79996750,-0.27001648,0.00999786,30.40001221,0.26402777
'2:45.375',-0.79996750,-0.27001648,0.00999786,30.40001221,0.26402777
'2:45.500',-0.79996750,-0.27001648,0.00999786,30.40001221,0.26402777
'2:45.625',-0.79996750,-0.28002808,0.00999786,30.40001221,0.26402777
'2:45.750',-0.79996750,-0.28002808,0.00999786,30.10007630,0.26402777
'2:45.875',-0.80997177,-0.28002808,0.00000000,30.40001221,0.26402777
'2:46.000',-0.79996750,-0.27001648,0.00999786,30.40001221,0.26402777
'2:46.125',-0.79996750,-0.27001648,0.00999786,30.40001221,0.26402777
'2:46.250',-0.78999725,-0.28002808,0.00999786,30.40001221,0.26402777
'2:46.375',-0.78999725,-0.28002808,0.00999786,30.40001221,0.26402777
'2:46.500',-0.78999725,-0.27001648,0.00999786,30.40001221,0.26402777
'2:46.625',-0.79996750,-0.27001648,0.00999786,30.40001221,0.26402777
'2:46.750',-0.79996750,-0.27001648,0.00999786,30.40001221,0.26402777
'2:46.875',-0.79996750,-0.28002808,0.00999786,30.40001221,0.26402777
'2:47.000',-0.79996750,-0.27001648,0.00999786,30.40001221,0.26402777
'2:47.125',-0.79996750,-0.28002808,0.00999786,30.40001221,0.26402777
'2:47.250',-0.79996750,-0.27001648,0.00999786,30.40001221,0.26402777
'2:47.375',-0.79996750,-0.27001648,0.00999786,30.40001221,0.26402777
'2:47.500',-0.78999725,-0.27001648,0.00999786,30.10007630,0.26402777
'2:47.625',-0.78999725,-0.28002808,0.00999786,30.40001221,0.26402777
'2:47.750',-0.79996750,-0.27001648,0.00999786,30.40001221,0.26402777
'2:47.875',-0.79996750,-0.27001648,0.00999786,30.40001221,0.26402777
'2:48.000',-0.78999725,-0.28002808,0.00999786,30.40001221,0.26402777
'2:48.125',-0.79996750,-0.27001648,0.00999786,30.40001221,0.26402777
'2:48.250',-0.79996750,-0.27001648,0.00999786,30.40001221,0.26402777
'2:48.375',-0.78999725,-0.27001648,0.00999786,30.40001221,0.26402777
'2:48.500',-0.78999725,-0.27001648,0.00999786,30.40001221,0.26402777
'2:48.625',-0.78999725,-0.28002808,0.00999786,30.40001221,0.26402777
'2:48.750',-0.79996750,-0.27001648,0.00999786,30.40001221,0.26402777
'2:48.875',-0.79996750,-0.27001648,0.00999786,30.10007630,0.26402777
'2:49.000',-0.79996750,-0.27001648,0.00999786,30.40001221,0.26402777
'2:49.125',-0.78999725,-0.28002808,0.00999786,30.40001221,0.26402777
'2:49.250',-0.79996750,-0.27001648,0.00999786,30.40001221,0.26402777
'2:49.375',-0.79996750,-0.28002808,0.00999786,30.40001221,0.26402777
'2:49.500',-0.79996750,-0.27001648,0.00999786,30.40001221,0.26402777
'2:49.625',-0.79996750,-0.27001648,0.00999786,30.40001221,0.26402777
'2:49.750',-0.79996750,-0.27001648,0.01999573,30.40001221,0.26402777
'2:49.875',-0.79996750,-0.27001648,0.00999786,30.40001221,0.26402777
'2:50.000',-0.78999725,-0.28002808,0.00999786,30.40001221,0.26402777
'2:50.125',-0.78999725,-0.27001648,0.00999786,30.40001221,0.26402777
'2:50.250',-0.78999725,-0.28002808,0.00999786,30.40001221,0.26402777
'2:50.375',-0.79996750,-0.27001648,0.00999786,30.40001221,0.26402777
'2:50.500',-0.79996750,-0.27001648,0.00999786,30.40001221,0.26402777
'2:50.625',-0.79996750,-0.27001648,0.00999786,30.40001221,0.26402777
'2:50.750',-0.79996750,-0.27001648,0.00999786,30.40001221,0.26402777
'2:50.875',-0.78999725,-0.28002808,0.01999573,30.40001221,0.26402777
'2:51.000',-0.78999725,-0.28002808,0.00999786,30.40001221,0.26402777
'2:51.125',-0.79996750,-0.28002808,0.00999786,30.40001221,0.26100481
'2:51.250',-0.79996750,-0.27001648,0.00999786,30.40001221,0.26402777
'2:51.375',-0.78999725,-0.28002808,0.00999786,30.40001221,0.26402777
'2:51.500',-0.79996750,-0.28002808,0.00999786,30.40001221,0.26402777
'2:51.625',-0.78999725,-0.27001648,0.00999786,30.40001221,0.26402777
'2:51.750',-0.78999725,-0.27001648,0.00999786,30.40001221,0.26402777
'2:51.875',-0.78999725,-0.27001648,0.00999786,30.40001221,0.26402777
'2:52.000',-0.78999725,-0.27001648,0.00999786,30.40001221,0.26402777
'2:52.125',-0.79996750,-0.28002808,0.00999786,30.40001221,0.26402777
'2:52.250',-0.79996750,-0.27001648,0.00999786,30.40001221,0.26402777
'2:52.375',-0.79996750,-0.27001648,0.00999786,30.40001221,0.26402777
'2:52.500',-0.79996750,-0.27001648,0.00999786,30.40001221,0.26402777
'2:52.625',-0.79996750,-0.28002808,0.00999786,30.40001221,0.26402777
'2:52.750',-0.79996750,-0.27001648,0.00999786,30.40001221,0.26402777
'2:52.875',-0.79996750,-0.28002808,0.01999573,30.40001221,0.26402777
'2:53.000',-0.78999725,-0.28002808,0.00999786,30.40001221,0.26402777
'2:53.125',-0.78999725,-0.27001648,0.00999786,30.40001221,0.26402777
'2:53.250',-0.78999725,-0.28002808,0.00999786,30.40001221,0.26100481
'2:53.375',-0.79996750,-0.27001648,0.00999786,30.40001221,0.26402777
'2:53.500',-0.79996750,-0.27001648,0.00999786,30.40001221,0.26402777
'2:53.625',-0.78999725,-0.27001648,0.00999786,30.40001221,0.26402777
'2:53.750',-0.78999725,-0.27001648,0.00999786,30.40001221,0.26402777
'2:53.875',-0.79996750,-0.28002808,0.00999786,30.40001221,0.26402777
'2:54.000',-0.78999725,-0.27001648,0.00999786,30.40001221,0.26402777
'2:54.125',-0.79996750,-0.27001648,0.00999786,30.40001221,0.26402777
'2:54.250',-0.79996750,-0.27001648,0.00999786,30.40001221,0.26402777
'2:54.375',-0.79996750,-0.28002808,0.00999786,30.40001221,0.26402777
'2:54.500',-0.79996750,-0.27001648,0.00999786,30.40001221,0.26402777
'2:54.625',-0.79996750,-0.26000488,0.00999786,30.40001221,0.26402777
'2:54.750',-0.79996750,-0.27001648,0.00999786,30.40001221,0.26402777
'2:54.875',-0.78999725,-0.28002808,0.00999786,30.40001221,0.26100481
'2:55.000',-0.78999725,-0.28002808,0.00999786,30.40001221,0.26402777
'2:55.125',-0.79996750,-0.27001648,0.00999786,30.40001221,0.26402777
'2:55.250',-0.79996750,-0.27001648,0.00999786,30.40001221,0.26402777
'2:55.375',-0.78999725,-0.28002808,0.00999786,30.40001221,0.26402777
'2:55.500',-0.79996750,-0.27001648,0.00999786,30.40001221,0.26402777
'2:55.625',-0.79996750,-0.27001648,0.00999786,30.40001221,0.26402777
'2:55.750',-0.79996750,-0.28002808,0.00999786,30.40001221,0.26402777
'2:55.875',-0.79996750,-0.28002808,0.00999786,30.40001221,0.26402777
'2:56.000',-0.78999725,-0.28002808,0.01999573,30.40001221,0.26402777
'2:56.125',-0.78999725,-0.28002808,0.01999573,30.40001221,0.26402777
'2:56.250',-0.79996750,-0.28002808,0.00999786,30.40001221,0.26402777
'2:56.375',-0.79996750,-0.27001648,0.01999573,30.40001221,0.26402777
'2:56.500',-0.79996750,-0.28002808,0.00999786,30.40001221,0.26402777
'2:56.625',-0.79996750,-0.28002808,0.00999786,30.40001221,0.26402777
'2:56.750',-0.78999725,-0.27001648,0.00999786,30.40001221,0.26402777
'2:56.875',-0.78999725,-0.28002808,0.00999786,30.40001221,0.26402777
'2:57.000',-0.78999725,-0.26000488,0.01999573,30.40001221,0.26402777
'2:57.125',-0.79996750,-0.28002808,0.00999786,30.40001221,0.26402777
'2:57.250',-0.79996750,-0.27001648,0.00999786,30.40001221,0.26402777
'2:57.375',-0.79996750,-0.27001648,0.00999786,30.40001221,0.26402777
'2:57.500',-0.79996750,-0.27001648,0.00999786,30.40001221,0.26402777
'2:57.625',-0.79996750,-0.27001648,0.01999573,30.40001221,0.26402777
'2:57.750',-0.79996750,-0.27001648,0.00999786,30.40001221,0.26402777
'2:57.875',-0.78999725,-0.27001648,0.00999786,30.40001221,0.26402777
'2:58.000',-0.78999725,-0.27001648,0.00999786,30.40001221,0.26402777
'2:58.125',-0.78999725,-0.28002808,0.00999786,30.40001221,0.26402777
'2:58.250',-0.79996750,-0.27001648,0.00999786,30.40001221,0.26402777
'2:58.375',-0.78999725,-0.28002808,0.00999786,30.40001221,0.26402777
'2:58.500',-0.79996750,-0.27001648,0.00999786,30.40001221,0.26402777
'2:58.625',-0.79996750,-0.27001648,0.00999786,30.40001221,0.26402777
'2:58.750',-0.78999725,-0.27001648,0.00999786,30.40001221,0.26402777
'2:58.875',-0.79996750,-0.27001648,0.01999573,30.40001221,0.26402777
'2:59.000',-0.78999725,-0.28002808,0.01999573,30.40001221,0.26402777
'2:59.125',-0.79996750,-0.27001648,0.01999573,30.40001221,0.26402777
'2:59.250',-0.79996750,-0.27001648,0.00999786,30.40001221,0.26402777
'2:59.375',-0.79996750,-0.27001648,0.00999786,30.40001221,0.26402777
'2:59.500',-0.79996750,-0.27001648,0.00999786,30.40001221,0.26402777
'2:59.625',-0.79996750,-0.27001648,0.00999786,30.40001221,0.26402777
'2:59.750',-0.79996750,-0.27001648,0.00999786,30.40001221,0.26402777
'2:59.875',-0.79996750,-0.27001648,0.00999786,30.40001221,0.26402777
'3:00.000',-0.79996750,-0.27001648,0.00999786,30.40001221,0.26402777
'3:00.125',-0.79996750,-0.27001648,0.00999786,30.40001221,0.26402777
'3:00.250',-0.79996750,-0.27001648,0.00999786,30.40001221,0.26402777
'3:00.375',-0.79996750,-0.28002808,0.00999786,30.40001221,0.26402777
'3:00.500',-0.79996750,-0.27001648,0.00999786,30.40001221,0.26402777
'3:00.625',-0.79996750,-0.26000488,0.00999786,30.40001221,0.26402777
'3:00.750',-0.79996750,-0.27001648,0.00999786,30.40001221,0.26402777
'3:00.875',-0.79996750,-0.27001648,0.00999786,30.40001221,0.26402777
'3:01.000',-0.79996750,-0.27001648,0.00999786,30.40001221,0.26402777
'3:01.125',-0.78999725,-0.28002808,0.01999573,30.40001221,0.26402777
'3:01.250',-0.79996750,-0.27001648,0.00999786,30.40001221,0.26402777
'3:01.375',-0.79996750,-0.28002808,0.00999786,30.40001221,0.26402777
'3:01.500',-0.79996750,-0.27001648,0.00999786,30.40001221,0.26402777
'3:01.625',-0.79996750,-0.27001648,0.00999786,30.40001221,0.26402777
'3:01.750',-0.79996750,-0.27001648,0.00999786,30.59996948,0.26402777
'3:01.875',-0.78999725,-0.27001648,0.00999786,30.40001221,0.26402777
'3:02.000',-0.78999725,-0.28002808,0.00999786,30.40001221,0.26402777
'3:02.125',-0.79996750,-0.27001648,0.00999786,30.40001221,0.26402777
'3:02.250',-0.79996750,-0.28002808,0.00999786,30.40001221,0.26402777
'3:02.375',-0.78999725,-0.27001648,0.00999786,30.40001221,0.26402777
'3:02.500',-0.79996750,-0.28002808,0.00999786,30.40001221,0.26402777
'3:02.625',-0.78999725,-0.28002808,0.00999786,30.40001221,0.26402777
'3:02.750',-0.79996750,-0.27001648,0.00999786,30.40001221,0.26402777
'3:02.875',-0.79996750,-0.27001648,0.00999786,30.59996948,0.26402777
'3:03.000',-0.78999725,-0.27001648,0.01999573,30.40001221,0.26402777
'3:03.125',-0.79996750,-0.28002808,0.00999786,30.40001221,0.26402777
'3:03.250',-0.79996750,-0.27001648,0.00999786,30.59996948,0.26402777
'3:03.375',-0.79996750,-0.27001648,0.00999786,30.40001221,0.26402777
'3:03.500',-0.79996750,-0.27001648,0.00999786,30.40001221,0.26402777
'3:03.625',-0.79996750,-0.27001648,0.01999573,30.40001221,0.26402777
'3:03.750',-0.79996750,-0.28002808,0.01999573,30.59996948,0.26402777
'3:03.875',-0.79996750,-0.27001648,0.01999573,30.40001221,0.26402777
'3:04.000',-0.79996750,-0.27001648,0.00999786,30.40001221,0.26402777
'3:04.125',-0.79996750,-0.28002808,0.01999573,30.40001221,0.26402777
'3:04.250',-0.78999725,-0.28002808,0.00999786,30.40001221,0.26402777
'3:04.375',-0.79996750,-0.27001648,0.00999786,30.40001221,0.26402777
'3:04.500',-0.78999725,-0.27001648,0.00999786,30.40001221,0.26402777
'3:04.625',-0.78999725,-0.27001648,0.01999573,30.59996948,0.26402777
'3:04.750',-0.78999725,-0.28002808,0.01999573,30.40001221,0.26402777
'3:04.875',-0.79996750,-0.28002808,0.00999786,30.40001221,0.26402777
'3:05.000',-0.79996750,-0.28002808,0.00999786,30.40001221,0.26402777
'3:05.125',-0.79996750,-0.28002808,0.01999573,30.59996948,0.26402777
'3:05.250',-0.79996750,-0.27001648,0.01999573,30.40001221,0.26402777
'3:05.375',-0.78999725,-0.27001648,0.00999786,30.59996948,0.26402777
'3:05.500',-0.78999725,-0.28002808,0.00999786,30.40001221,0.26402777
'3:05.625',-0.79996750,-0.27001648,0.01999573,30.40001221,0.26402777
'3:05.750',-0.79996750,-0.27001648,0.00999786,30.59996948,0.26402777
'3:05.875',-0.79996750,-0.27001648,0.01999573,30.59996948,0.26402777
'3:06.000',-0.79996750,-0.27001648,0.00999786,30.40001221,0.26402777
'3:06.125',-0.78999725,-0.28002808,0.00999786,30.40001221,0.26402777
'3:06.250',-0.79996750,-0.27001648,0.01999573,30.40001221,0.26402777
'3:06.375',-0.78999725,-0.27001648,0.00999786,30.40001221,0.26701752
'3:06.500',-0.79996750,-0.26000488,0.00999786,30.59996948,0.26402777
'3:06.625',-0.79996750,-0.27001648,0.00999786,30.59996948,0.26402777
'3:06.750',-0.79996750,-0.27001648,0.01999573,30.40001221,0.26402777
'3:06.875',-0.79996750,-0.27001648,0.01999573,30.59996948,0.26402777
'3:07.000',-0.78999725,-0.27001648,0.00999786,30.40001221,0.26402777
'3:07.125',-0.78999725,-0.27001648,0.00999786,30.59996948,0.26402777
'3:07.250',-0.79996750,-0.27001648,0.00999786,30.40001221,0.26402777
'3:07.375',-0.79996750,-0.27001648,0.01999573,30.59996948,0.26402777
'3:07.500',-0.79996750,-0.27001648,0.00999786,30.59996948,0.26402777
'3:07.625',-0.79996750,-0.28002808,0.00999786,30.59996948,0.26402777
'3:07.750',-0.78999725,-0.28002808,0.00999786,30.40001221,0.26402777
'3:07.875',-0.78999725,-0.28002808,0.00999786,30.40001221,0.26402777
'3:08.000',-0.79996750,-0.27001648,0.00999786,30.59996948,0.26402777
'3:08.125',-0.78999725,-0.27001648,0.00999786,30.40001221,0.26402777
'3:08.250',-0.79996750,-0.27001648,0.01999573,30.59996948,0.26402777
'3:08.375',-0.79996750,-0.28002808,0.00999786,30.40001221,0.26402777
'3:08.500',-0.79996750,-0.27001648,0.00999786,30.40001221,0.26402777
'3:08.625',-0.79996750,-0.27001648,0.00999786,30.40001221,0.26402777
'3:08.750',-0.79996750,-0.28002808,0.00999786,30.59996948,0.26402777
'3:08.875',-0.79996750,-0.27001648,0.00999786,30.59996948,0.26402777
'3:09.000',-0.79996750,-0.28002808,0.01999573,30.59996948,0.26402777
'3:09.125',-0.79996750,-0.27001648,0.00999786,30.59996948,0.26402777
'3:09.250',-0.79996750,-0.27001648,0.00999786,30.59996948,0.26402777
'3:09.375',-0.79996750,-0.27001648,0.00999786,30.59996948,0.26402777
'3:09.500',-0.79996750,-0.28002808,0.00999786,30.59996948,0.26402777
'3:09.625',-0.78999725,-0.27001648,0.00999786,30.59996948,0.26402777
'3:09.750',-0.79996750,-0.28002808,0.01999573,30.59996948,0.26402777
'3:09.875',-0.79996750,-0.27001648,0.00999786,30.59996948,0.26402777
'3:10.000',-0.79996750,-0.27001648,0.00999786,30.59996948,0.26402777
'3:10.125',-0.78999725,-0.28002808,0.00999786,30.59996948,0.26402777
'3:10.250',-0.79996750,-0.27001648,0.00999786,30.59996948,0.26402777
'3:10.375',-0.78999725,-0.27001648,0.00999786,30.59996948,0.26402777
'3:10.500',-0.79996750,-0.27001648,0.01999573,30.59996948,0.26402777
'3:10.625',-0.79996750,-0.28002808,0.00999786,30.59996948,0.26402777
'3:10.750',-0.79996750,-0.27001648,0.00999786,30.59996948,0.26402777
'3:10.875',-0.79996750,-0.27001648,0.00999786,30.59996948,0.26402777
'3:11.000',-0.78999725,-0.27001648,0.00999786,30.59996948,0.26402777
'3:11.125',-0.79996750,-0.27001648,0.00999786,30.59996948,0.26402777
'3:11.250',-0.79996750,-0.28002808,0.01999573,30.59996948,0.26402777
'3:11.375',-0.79996750,-0.27001648,0.00999786,30.40001221,0.26402777
'3:11.500',-0.80997177,-0.27001648,0.00999786,30.40001221,0.26402777
'3:11.625',-0.79996750,-0.28002808,0.00999786,30.59996948,0.26402777
'3:11.750',-0.79996750,-0.27001648,0.00999786,30.59996948,0.26402777
'3:11.875',-0.79996750,-0.27001648,0.01999573,30.40001221,0.26402777
'3:12.000',-0.79996750,-0.27001648,0.00999786,30.40001221,0.26402777
'3:12.125',-0.78999725,-0.28002808,0.01999573,30.59996948,0.26402777
'3:12.250',-0.79996750,-0.27001648,0.00999786,30.59996948,0.26402777
'3:12.375',-0.78999725,-0.27001648,0.00999786,30.40001221,0.26402777
'3:12.500',-0.78999725,-0.28002808,0.01999573,30.59996948,0.26402777
'3:12.625',-0.79996750,-0.28002808,0.00999786,30.59996948,0.26402777
'3:12.750',-0.78999725,-0.27001648,0.00999786,30.59996948,0.26402777
'3:12.875',-0.80997177,-0.27001648,0.00999786,30.59996948,0.26402777
'3:13.000',-0.79996750,-0.28002808,0.00999786,30.59996948,0.26402777
'3:13.125',-0.78999725,-0.28002808,0.00999786,30.59996948,0.26402777
'3:13.250',-0.79996750,-0.28002808,0.00999786,30.59996948,0.26402777
'3:13.375',-0.79996750,-0.27001648,0.00999786,30.59996948,0.26402777
'3:13.500',-0.79996750,-0.27001648,0.01999573,30.59996948,0.26402777
'3:13.625',-0.79996750,-0.28002808,0.01999573,30.59996948,0.26402777
'3:13.750',-0.79996750,-0.28002808,0.00999786,30.59996948,0.26402777
'3:13.875',-0.79996750,-0.27001648,0.01999573,30.59996948,0.26402777
'3:14.000',-0.79996750,-0.27001648,0.00999786,30.59996948,0.26402777
'3:14.125',-0.79996750,-0.28002808,0.00999786,30.59996948,0.26402777
'3:14.250',-0.79996750,-0.27001648,0.00999786,30.59996948,0.26402777
'3:14.375',-0.79996750,-0.27001648,0.01999573,30.59996948,0.26402777
'3:14.500',-0.79996750,-0.27001648,0.00999786,30.59996948,0.26402777
'3:14.625',-0.79996750,-0.27001648,0.00999786,30.59996948,0.26402777
'3:14.750',-0.79996750,-0.27001648,0.00999786,30.59996948,0.26402777
'3:14.875',-0.79996750,-0.27001648,0.00999786,30.59996948,0.26402777
'3:15.000',-0.78999725,-0.28002808,0.00999786,30.59996948,0.26402777
'3:15.125',-0.79996750,-0.28002808,0.01999573,30.59996948,0.26402777
'3:15.250',-0.79996750,-0.27001648,0.00999786,30.59996948,0.26402777
'3:15.375',-0.78999725,-0.27001648,0.00999786,30.59996948,0.26402777
'3:15.500',-0.78999725,-0.27001648,0.01999573,30.59996948,0.26402777
'3:15.625',-0.80997177,-0.27001648,0.01999573,30.59996948,0.26402777
'3:15.750',-0.79996750,-0.27001648,0.00999786,30.59996948,0.26402777
'3:15.875',-0.78999725,-0.28002808,0.00999786,30.59996948,0.26402777
'3:16.000',-0.79996750,-0.27001648,0.01999573,30.59996948,0.26402777
'3:16.125',-0.79996750,-0.27001648,0.00999786,30.59996948,0.26402777
'3:16.250',-0.78999725,-0.27001648,0.01999573,30.59996948,0.26402777
'3:16.375',-0.79996750,-0.28002808,0.00999786,30.59996948,0.26402777
'3:16.500',-0.79996750,-0.27001648,0.01999573,30.59996948,0.26402777
'3:16.625',-0.79996750,-0.27001648,0.00999786,30.59996948,0.26402777
'3:16.750',-0.80997177,-0.27001648,0.00999786,30.59996948,0.26402777
'3:16.875',-0.79996750,-0.27001648,0.00999786,30.59996948,0.26402777
'3:17.000',-0.79996750,-0.27001648,0.00999786,30.59996948,0.26402777
'3:17.125',-0.79996750,-0.26000488,0.01999573,30.59996948,0.26402777
'3:17.250',-0.79996750,-0.28002808,0.00999786,30.59996948,0.26402777
'3:17.375',-0.79996750,-0.27001648,0.01999573,30.59996948,0.26402777
'3:17.500',-0.79996750,-0.27001648,0.00999786,30.59996948,0.26402777
'3:17.625',-0.79996750,-0.27001648,0.00999786,30.59996948,0.26402777
'3:17.750',-0.79996750,-0.27001648,0.00999786,30.59996948,0.26402777
'3:17.875',-0.79996750,-0.28002808,0.00999786,30.59996948,0.26402777
'3:18.000',-0.79996750,-0.27001648,0.00999786,30.59996948,0.26402777
'3:18.125',-0.79996750,-0.27001648,0.01999573,30.59996948,0.26402777
'3:18.250',-0.78999725,-0.28002808,0.01999573,30.59996948,0.26402777
'3:18.375',-0.79996750,-0.27001648,0.01999573,30.59996948,0.26402777
'3:18.500',-0.78999725,-0.27001648,0.00999786,30.59996948,0.26402777
'3:18.625',-0.78999725,-0.27001648,0.00999786,30.59996948,0.26402777
'3:18.750',-0.79996750,-0.27001648,0.01999573,30.59996948,0.26402777
'3:18.875',-0.79996750,-0.27001648,0.00999786,30.59996948,0.26402777
'3:19.000',-0.79996750,-0.27001648,0.00999786,30.59996948,0.26402777
'3:19.125',-0.79996750,-0.28002808,0.00999786,30.59996948,0.26402777
'3:19.250',-0.79996750,-0.26000488,0.00999786,30.59996948,0.26402777
'3:19.375',-0.79996750,-0.27001648,0.00999786,30.59996948,0.26402777
'3:19.500',-0.79996750,-0.27001648,0.01999573,30.59996948,0.26402777
'3:19.625',-0.78999725,-0.27001648,0.00999786,30.59996948,0.26402777
'3:19.750',-0.79996750,-0.28002808,0.01999573,30.59996948,0.26402777
'3:19.875',-0.79996750,-0.27001648,0.00999786,30.59996948,0.26402777
'3:20.000',-0.79996750,-0.27001648,0.00999786,30.59996948,0.26402777
'3:20.125',-0.79996750,-0.27001648,0.01999573,30.59996948,0.26402777
'3:20.250',-0.79996750,-0.27001648,0.00999786,30.59996948,0.26701752
'3:20.375',-0.79996750,-0.27001648,0.01999573,30.59996948,0.26402777
'3:20.500',-0.79996750,-0.27001648,0.00999786,30.59996948,0.26402777
'3:20.625',-0.79996750,-0.27001648,0.01999573,30.59996948,0.26402777
'3:20.750',-0.78999725,-0.27001648,0.01999573,30.59996948,0.26402777
'3:20.875',-0.79996750,-0.27001648,0.01999573,30.59996948,0.26701752
'3:21.000',-0.79996750,-0.27001648,0.00999786,30.59996948,0.26402777
'3:21.125',-0.79996750,-0.27001648,0.01999573,30.59996948,0.26402777
'3:21.250',-0.79996750,-0.28002808,0.00999786,30.59996948,0.26402777
'3:21.375',-0.79996750,-0.27001648,0.00999786,30.59996948,0.26402777
'3:21.500',-0.78999725,-0.27001648,0.00999786,30.59996948,0.26402777
'3:21.625',-0.79996750,-0.27001648,0.01999573,30.59996948,0.26402777
'3:21.750',-0.79996750,-0.27001648,0.01999573,30.59996948,0.26402777
'3:21.875',-0.79996750,-0.28002808,0.00999786,30.59996948,0.26402777
'3:22.000',-0.79996750,-0.27001648,0.00999786,30.59996948,0.26402777
'3:22.125',-0.79996750,-0.27001648,0.00999786,30.59996948,0.26701752
'3:22.250',-0.79996750,-0.28002808,0.01999573,30.59996948,0.26402777
'3:22.375',-0.79996750,-0.27001648,0.01999573,30.59996948,0.26402777
'3:22.500',-0.79996750,-0.28002808,0.00999786,30.59996948,0.26402777
'3:22.625',-0.79996750,-0.27001648,0.00999786,30.59996948,0.26402777
'3:22.750',-0.79996750,-0.27001648,0.00999786,30.59996948,0.26402777
'3:22.875',-0.79996750,-0.27001648,0.01999573,30.79992676,0.26402777
'3:23.000',-0.80997177,-0.27001648,0.00999786,30.59996948,0.26402777
'3:23.125',-0.79996750,-0.27001648,0.00999786,30.59996948,0.26402777
'3:23.250',-0.79996750,-0.27001648,0.00999786,30.59996948,0.26402777
'3:23.375',-0.79996750,-0.28002808,0.01999573,30.59996948,0.26402777
'3:23.500',-0.79996750,-0.28002808,0.01999573,30.59996948,0.26402777
'3:23.625',-0.79996750,-0.28002808,0.00999786,30.59996948,0.26402777
'3:23.750',-0.79996750,-0.28002808,0.00999786,30.59996948,0.26402777
'3:23.875',-0.79996750,-0.28002808,0.00999786,30.59996948,0.26402777
'3:24.000',-0.79996750,-0.28002808,0.00999786,30.59996948,0.26402777
'3:24.125',-0.79996750,-0.27001648,0.00999786,30.59996948,0.26402777
'3:24.250',-0.79996750,-0.27001648,0.00999786,30.59996948,0.26402777
'3:24.375',-0.78999725,-0.27001648,0.01999573,30.59996948,0.26402777
'3:24.500',-0.79996750,-0.28002808,0.00999786,30.59996948,0.26402777
'3:24.625',-0.79996750,-0.27001648,0.01999573,30.59996948,0.26402777
'3:24.750',-0.80997177,-0.27001648,0.00999786,30.59996948,0.26402777
'3:24.875',-0.79996750,-0.27001648,0.00999786,30.59996948,0.26402777
'3:25.000',-0.78999725,-0.27001648,0.00999786,30.59996948,0.26402777
'3:25.125',-0.78999725,-0.28002808,0.00999786,30.59996948,0.26402777
'3:25.250',-0.79996750,-0.26000488,0.01999573,30.79992676,0.26402777
'3:25.375',-0.79996750,-0.27001648,0.01999573,30.59996948,0.26402777
'3:25.500',-0.78999725,-0.28002808,0.01999573,30.59996948,0.26402777
'3:25.625',-0.79996750,-0.27001648,0.00999786,30.59996948,0.26402777
'3:25.750',-0.78999725,-0.27001648,0.00999786,30.59996948,0.26402777
'3:25.875',-0.79996750,-0.27001648,0.01999573,30.59996948,0.26402777
'3:26.000',-0.79996750,-0.27001648,0.00999786,30.59996948,0.26402777
'3:26.125',-0.79996750,-0.27001648,0.01999573,30.59996948,0.26402777
'3:26.250',-0.79996750,-0.27001648,0.01999573,30.59996948,0.26402777
'3:26.375',-0.79996750,-0.28002808,0.01999573,30.59996948,0.26402777
'3:26.500',-0.79996750,-0.27001648,0.00999786,30.79992676,0.26402777
'3:26.625',-0.78999725,-0.27001648,0.00999786,30.79992676,0.26402777
'3:26.750',-0.79996750,-0.28002808,0.00999786,30.59996948,0.26402777
'3:26.875',-0.79996750,-0.27001648,0.01999573,30.59996948,0.26402777
'3:27.000',-0.79996750,-0.27001648,0.00999786,30.59996948,0.26402777
'3:27.125',-0.79996750,-0.27001648,0.01999573,30.59996948,0.26402777
'3:27.250',-0.78999725,-0.28002808,0.01999573,30.59996948,0.26402777
'3:27.375',-0.78999725,-0.27001648,0.00999786,30.59996948,0.26402777
'3:27.500',-0.79996750,-0.27001648,0.00999786,30.59996948,0.26402777
'3:27.625',-0.79996750,-0.27001648,0.01999573,30.79992676,0.26402777
'3:27.750',-0.79996750,-0.28002808,0.00999786,30.59996948,0.26402777
'3:27.875',-0.79996750,-0.28002808,0.00999786,30.59996948,0.26402777
'3:28.000',-0.79996750,-0.27001648,0.00999786,30.59996948,0.26402777
'3:28.125',-0.79996750,-0.27001648,0.00999786,30.79992676,0.26402777
'3:28.250',-0.79996750,-0.27001648,0.01999573,30.59996948,0.26402777
'3:28.375',-0.79996750,-0.27001648,0.00999786,30.79992676,0.26402777
'3:28.500',-0.79996750,-0.28002808,0.01999573,30.59996948,0.26402777
'3:28.625',-0.79996750,-0.27001648,0.00999786,30.79992676,0.26402777
'3:28.750',-0.79996750,-0.27001648,0.01999573,30.59996948,0.26402777
'3:28.875',-0.79996750,-0.28002808,0.01999573,30.59996948,0.26701752
'3:29.000',-0.78999725,-0.27001648,0.01999573,30.59996948,0.26402777
'3:29.125',-0.79996750,-0.28002808,0.00999786,30.59996948,0.26402777
'3:29.250',-0.79996750,-0.27001648,0.00999786,30.79992676,0.26402777
'3:29.375',-0.79996750,-0.28002808,0.00999786,30.79992676,0.26402777
'3:29.500',-0.79996750,-0.27001648,0.00999786,30.79992676,0.26402777
'3:29.625',-0.79996750,-0.27001648,0.01999573,30.79992676,0.26402777
'3:29.750',-0.79996750,-0.27001648,0.00999786,30.79992676,0.26402777
'3:29.875',-0.78999725,-0.27001648,0.00999786,30.59996948,0.26402777
'3:30.000',-0.79996750,-0.27001648,0.00999786,30.79992676,0.26402777
'3:30.125',-0.79996750,-0.27001648,0.00999786,30.79992676,0.26402777
'3:30.250',-0.79996750,-0.28002808,0.00999786,30.59996948,0.26402777
'3:30.375',-0.79996750,-0.27001648,0.01999573,30.59996948,0.26402777
'3:30.500',-0.78999725,-0.27001648,0.01999573,30.59996948,0.26402777
'3:30.625',-0.80997177,-0.27001648,0.01999573,30.79992676,0.26402777
'3:30.750',-0.78999725,-0.28002808,0.01999573,30.79992676,0.26402777
'3:30.875',-0.79996750,-0.27001648,0.00999786,30.59996948,0.26402777
'3:31.000',-0.78999725,-0.27001648,0.00999786,30.59996948,0.26402777
'3:31.125',-0.79996750,-0.27001648,0.01999573,30.79992676,0.26402777
'3:31.250',-0.79996750,-0.27001648,0.00999786,30.59996948,0.26701752
'3:31.375',-0.79996750,-0.27001648,0.01999573,30.59996948,0.26402777
'3:31.500',-0.79996750,-0.28002808,0.00999786,30.59996948,0.26402777
'3:31.625',-0.79996750,-0.28002808,0.01999573,30.79992676,0.26402777
'3:31.750',-0.79996750,-0.27001648,0.00999786,30.79992676,0.26402777
'3:31.875',-0.79996750,-0.27001648,0.00999786,30.59996948,0.26402777
'3:32.000',-0.79996750,-0.27001648,0.00999786,30.59996948,0.26402777
'3:32.125',-0.79996750,-0.27001648,0.00999786,30.79992676,0.26402777
'3:32.250',-0.78999725,-0.28002808,0.00999786,30.79992676,0.26402777
'3:32.375',-0.79996750,-0.28002808,0.00999786,30.59996948,0.26701752
'3:32.500',-0.79996750,-0.27001648,0.01999573,30.59996948,0.26402777
'3:32.625',-0.79996750,-0.27001648,0.00999786,30.79992676,0.26402777
'3:32.750',-0.79996750,-0.28002808,0.01999573,30.79992676,0.26402777
'3:32.875',-0.79996750,-0.27001648,0.00999786,30.59996948,0.26402777
'3:33.000',-0.78999725,-0.27001648,0.01999573,30.79992676,0.26402777
'3:33.125',-0.79996750,-0.27001648,0.01999573,30.79992676,0.26402777
'3:33.250',-0.79996750,-0.27001648,0.00999786,30.79992676,0.26402777
'3:33.375',-0.79996750,-0.27001648,0.01999573,30.79992676,0.26402777
'3:33.500',-0.79996750,-0.27001648,0.01999573,30.79992676,0.26402777
'3:33.625',-0.78999725,-0.27001648,0.00999786,30.59996948,0.26402777
'3:33.750',-0.79996750,-0.28002808,0.01999573,30.79992676,0.26402777
'3:33.875',-0.79996750,-0.27001648,0.01999573,30.79992676,0.26402777
'3:34.000',-0.79996750,-0.27001648,0.01999573,30.79992676,0.26701752
'3:34.125',-0.79996750,-0.28002808,0.00999786,30.79992676,0.26402777
'3:34.250',-0.79996750,-0.27001648,0.00999786,30.79992676,0.26402777
'3:34.375',-0.79996750,-0.28002808,0.00999786,30.79992676,0.26402777
'3:34.500',-0.79996750,-0.27001648,0.01999573,30.79992676,0.26402777
'3:34.625',-0.79996750,-0.27001648,0.01999573,30.79992676,0.26402777
'3:34.750',-0.79996750,-0.27001648,0.01999573,30.79992676,0.26402777
'3:34.875',-0.79996750,-0.27001648,0.01999573,30.79992676,0.26402777
'3:35.000',-0.79996750,-0.27001648,0.00999786,30.79992676,0.26402777
'3:35.125',-0.79996750,-0.27001648,0.00999786,30.79992676,0.26701752
'3:35.250',-0.79996750,-0.28002808,0.00999786,30.79992676,0.26701752
'3:35.375',-0.79996750,-0.27001648,0.00999786,30.79992676,0.26402777
'3:35.500',-0.79996750,-0.27001648,0.00999786,30.79992676,0.26402777
'3:35.625',-0.78999725,-0.27001648,0.01999573,30.79992676,0.26402777
'3:35.750',-0.79996750,-0.27001648,0.01999573,30.79992676,0.26402777
'3:35.875',-0.79996750,-0.27001648,0.00999786,30.79992676,0.26402777
'3:36.000',-0.79996750,-0.27001648,0.01999573,30.79992676,0.26402777
'3:36.125',-0.79996750,-0.27001648,0.00999786,30.79992676,0.26402777
'3:36.250',-0.79996750,-0.27001648,0.00999786,30.79992676,0.26402777
'3:36.375',-0.79996750,-0.27001648,0.01999573,30.79992676,0.26402777
'3:36.500',-0.78999725,-0.27001648,0.00999786,30.79992676,0.26402777
'3:36.625',-0.79996750,-0.27001648,0.01999573,30.79992676,0.26402777
'3:36.750',-0.78999725,-0.27001648,0.00999786,30.79992676,0.26402777
'3:36.875',-0.79996750,-0.27001648,0.01999573,30.79992676,0.26402777
'3:37.000',-0.79996750,-0.27001648,0.00999786,30.79992676,0.26402777
'3:37.125',-0.79996750,-0.27001648,0.00999786,30.79992676,0.26402777
'3:37.250',-0.79996750,-0.27001648,0.01999573,30.79992676,0.26402777
