Elapsed time,ax,ay,az,temp,EDA
'0:00.000',1.14996857,-0.49006104,-0.11002396,27.40005188,0.44504495
'0:00.125',1.10997711,-0.38003082,-0.24004074,27.40005188,0.44800848
'0:00.250',1.08998138,-0.49006104,-0.23002319,27.20006714,0.44800848
'0:00.375',1.13997070,-0.48005829,-0.25001602,27.40005188,0.44504495
'0:00.500',1.07998352,-0.48005829,-0.23002319,27.40005188,0.44800848
'0:00.625',1.04998993,-0.48005829,-0.22000565,27.40005188,0.44800848
'0:00.750',1.07998352,-0.47005554,-0.22000565,27.40005188,0.44704212
'0:00.875',1.07998352,-0.47005554,-0.21003037,27.20006714,0.44601132
'0:01.000',1.08998138,-0.47005554,-0.21003037,27.40005188,0.44504495
'0:01.125',1.08998138,-0.48005829,-0.21003037,27.40005188,0.44800848
'0:01.250',1.08998138,-0.47005554,-0.21003037,27.40005188,0.44201700
'0:01.375',1.08998138,-0.48005829,-0.21003037,27.40005188,0.44601132
'0:01.500',1.07998352,-0.47005554,-0.21003037,27.40005188,0.44504495
'0:01.625',1.07998352,-0.48005829,-0.21003037,27.40005188,0.44201700
'0:01.750',1.07998352,-0.47005554,-0.21003037,27.40005188,0.44201700
'0:01.875',1.07998352,-0.48005829,-0.21003037,27.40005188,0.44105063
'0:02.000',1.08998138,-0.47005554,-0.21003037,27.40005188,0.44201700
'0:02.125',1.07998352,-0.48005829,-0.21003037,27.40005188,0.44201700
'0:02.250',1.07998352,-0.48005829,-0.21003037,27.40005188,0.44201700
'0:02.375',1.07998352,-0.48005829,-0.21003037,27.40005188,0.44201700
'0:02.500',1.07998352,-0.48005829,-0.21003037,27.40005188,0.44201700
'0:02.625',1.07998352,-0.48005829,-0.21003037,27.40005188,0.44201700
'0:02.750',1.08998138,-0.48005829,-0.22000565,27.40005188,0.44201700
'0:02.875',1.08998138,-0.48005829,-0.22000565,27.40005188,0.44201700
'0:03.000',1.07998352,-0.48005829,-0.21003037,27.40005188,0.44201700
'0:03.125',1.07998352,-0.48005829,-0.22000565,27.40005188,0.44201700
'0:03.250',1.07998352,-0.47005554,-0.22000565,27.40005188,0.44201700
'0:03.375',1.07998352,-0.48005829,-0.21003037,27.40005188,0.44201700
'0:03.500',1.07998352,-0.47005554,-0.21003037,27.40005188,0.44201700
'0:03.625',1.07998352,-0.48005829,-0.21003037,27.40005188,0.44201700
'0:03.750',1.07998352,-0.47005554,-0.21003037,27.40005188,0.44201700
'0:03.875',1.07998352,-0.48005829,-0.21003037,27.40005188,0.44201700
'0:04.000',1.07998352,-0.47005554,-0.21003037,27.40005188,0.44201700
'0:04.125',1.07998352,-0.47005554,-0.21003037,27.40005188,0.44201700
'0:04.250',1.07998352,-0.47005554,-0.21003037,27.40005188,0.44105063
'0:04.375',1.08998138,-0.48005829,-0.21003037,27.40005188,0.44201700
'0:04.500',1.07998352,-0.47005554,-0.21003037,27.40005188,0.44201700
'0:04.625',1.07998352,-0.47005554,-0.21003037,27.40005188,0.44201700
'0:04.750',1.07998352,-0.47005554,-0.21003037,27.40005188,0.44105063
'0:04.875',1.07998352,-0.47005554,-0.21003037,27.40005188,0.44201700
'0:05.000',1.08998138,-0.47005554,-0.21003037,27.40005188,0.44201700
'0:05.125',1.07998352,-0.47005554,-0.21003037,27.40005188,0.43905347
'0:05.250',1.08998138,-0.47005554,-0.21003037,27.40005188,0.44201700
'0:05.375',1.07998352,-0.47005554,-0.21003037,27.40005188,0.43905347
'0:05.500',1.08998138,-0.47005554,-0.21003037,27.40005188,0.44201700
'0:05.625',1.07998352,-0.46005280,-0.21003037,27.40005188,0.44105063
'0:05.750',1.08998138,-0.46005280,-0.21003037,27.40005188,0.43905347
'0:05.875',1.08998138,-0.47005554,-0.21003037,27.40005188,0.44201700
'0:06.000',1.08998138,-0.47005554,-0.21003037,27.40005188,0.44201700
'0:06.125',1.08998138,-0.47005554,-0.21003037,27.40005188,0.43905347
'0:06.250',1.07998352,-0.47005554,-0.21003037,27.40005188,0.43905347
'0:06.375',1.08998138,-0.47005554,-0.21003037,27.40005188,0.43905347
'0:06.500',1.07998352,-0.47005554,-0.21003037,27.40005188,0.43905347
'0:06.625',1.08998138,-0.46005280,-0.21003037,27.40005188,0.43905347
'0:06.750',1.08998138,-0.47005554,-0.21003037,27.40005188,0.43905347
'0:06.875',1.07998352,-0.47005554,-0.21003037,27.40005188,0.43505914
'0:07.000',1.08998138,-0.47005554,-0.21003037,27.40005188,0.43602551
'0:07.125',1.07998352,-0.47005554,-0.21003037,27.40005188,0.43505914
'0:07.250',1.08998138,-0.47005554,-0.21003037,27.40005188,0.43905347
'0:07.375',1.08998138,-0.46005280,-0.21003037,27.40005188,0.43602551
'0:07.500',1.08998138,-0.47005554,-0.21003037,27.40005188,0.43602551
'0:07.625',1.07998352,-0.47005554,-0.21003037,27.40005188,0.43602551
'0:07.750',1.07998352,-0.46005280,-0.20001282,27.40005188,0.43602551
'0:07.875',1.07998352,-0.45005005,-0.22000565,27.40005188,0.43602551
'0:08.000',1.08998138,-0.46005280,-0.21003037,27.40005188,0.43602551
'0:08.125',1.07998352,-0.45005005,-0.21003037,27.40005188,0.43602551
'0:08.250',1.08998138,-0.48005829,-0.22000565,27.40005188,0.43602551
'0:08.375',1.06998566,-0.50006378,-0.21003037,27.40005188,0.43505914
'0:08.500',1.08998138,-0.49006104,-0.19003754,27.40005188,0.43505914
'0:08.625',1.06998566,-0.50006378,-0.30001923,27.40005188,0.43602551
'0:08.750',1.09997925,-0.49006104,-0.19003754,27.40005188,0.43602551
'0:08.875',1.08998138,-0.45005005,-0.21003037,27.40005188,0.43306198
'0:09.000',1.08998138,-0.47005554,-0.19003754,27.40005188,0.43602551
'0:09.125',1.08998138,-0.46005280,-0.21003037,27.40005188,0.43505914
'0:09.250',1.08998138,-0.47005554,-0.21003037,27.40005188,0.43602551
'0:09.375',1.08998138,-0.46005280,-0.20001282,27.40005188,0.43602551
'0:09.500',1.08998138,-0.47005554,-0.20001282,27.40005188,0.43602551
'0:09.625',1.08998138,-0.47005554,-0.20001282,27.40005188,0.43306198
'0:09.750',1.08998138,-0.47005554,-0.21003037,27.60003662,0.43602551
'0:09.875',1.08998138,-0.47005554,-0.20001282,27.40005188,0.43505914
'0:10.000',1.09997925,-0.47005554,-0.20001282,27.40005188,0.43602551
'0:10.125',1.08998138,-0.47005554,-0.21003037,27.40005188,0.43602551
'0:10.250',1.07998352,-0.47005554,-0.20001282,27.40005188,0.43306198
'0:10.375',1.08998138,-0.47005554,-0.20001282,27.40005188,0.43602551
'0:10.500',1.08998138,-0.47005554,-0.20001282,27.60003662,0.43306198
'0:10.625',1.07998352,-0.48005829,-0.21003037,27.40005188,0.43602551
'0:10.750',1.07998352,-0.47005554,-0.21003037,27.40005188,0.43306198
'0:10.875',1.08998138,-0.48005829,-0.20001282,27.60003662,0.43602551
'0:11.000',1.07998352,-0.48005829,-0.20001282,27.60003662,0.43003403
'0:11.125',1.07998352,-0.48005829,-0.20001282,27.40005188,0.43602551
'0:11.250',1.08998138,-0.48005829,-0.21003037,27.40005188,0.43306198
'0:11.375',1.07998352,-0.47005554,-0.20001282,27.60003662,0.43003403
'0:11.500',1.07998352,-0.47005554,-0.20001282,27.40005188,0.43602551
'0:11.625',1.08998138,-0.47005554,-0.21003037,27.60003662,0.43402835
'0:11.750',1.07998352,-0.48005829,-0.20001282,27.40005188,0.43306198
'0:11.875',1.08998138,-0.47005554,-0.20001282,27.40005188,0.43402835
'0:12.000',1.08998138,-0.47005554,-0.20001282,27.60003662,0.42900323
'0:12.125',1.08998138,-0.47005554,-0.20001282,27.60003662,0.43003403
'0:12.250',1.08998138,-0.47005554,-0.21003037,27.60003662,0.43003403
'0:12.375',1.08998138,-0.47005554,-0.19003754,27.60003662,0.43003403
'0:12.500',1.08998138,-0.46005280,-0.21003037,27.60003662,0.42900323
'0:12.625',1.08998138,-0.47005554,-0.21003037,27.60003662,0.42900323
'0:12.750',1.08998138,-0.46005280,-0.20001282,27.60003662,0.43003403
'0:12.875',1.08998138,-0.47005554,-0.20001282,27.60003662,0.43003403
'0:13.000',1.09997925,-0.46005280,-0.21003037,27.60003662,0.43003403
'0:13.125',1.08998138,-0.46005280,-0.20001282,27.40005188,0.43003403
'0:13.250',1.08998138,-0.46005280,-0.20001282,27.60003662,0.43003403
'0:13.375',1.08998138,-0.46005280,-0.20001282,27.40005188,0.42900323
'0:13.500',1.08998138,-0.46005280,-0.21003037,27.60003662,0.43003403
'0:13.625',1.08998138,-0.47005554,-0.21003037,27.40005188,0.43003403
'0:13.750',1.08998138,-0.46005280,-0.20001282,27.60003662,0.42900323
'0:13.875',1.08998138,-0.46005280,-0.20001282,27.60003662,0.43003403
'0:14.000',1.08998138,-0.46005280,-0.20001282,27.60003662,0.42900323
'0:14.125',1.08998138,-0.46005280,-0.20001282,27.60003662,0.43003403
'0:14.250',1.08998138,-0.46005280,-0.21003037,27.60003662,0.43003403
'0:14.375',1.07998352,-0.46005280,-0.21003037,27.60003662,0.43003403
'0:14.500',1.08998138,-0.46005280,-0.21003037,27.60003662,0.43003403
'0:14.625',1.08998138,-0.46005280,-0.20001282,27.60003662,0.42900323
'0:14.750',1.08998138,-0.46005280,-0.21003037,27.60003662,0.43003403
'0:14.875',1.08998138,-0.46005280,-0.20001282,27.60003662,0.43003403
'0:15.000',1.07998352,-0.46005280,-0.20001282,27.60003662,0.43003403
'0:15.125',1.08998138,-0.47005554,-0.20001282,27.60003662,0.42900323
'0:15.250',1.08998138,-0.46005280,-0.20001282,27.60003662,0.43003403
'0:15.375',1.08998138,-0.46005280,-0.20001282,27.60003662,0.42900323
'0:15.500',1.08998138,-0.46005280,-0.20001282,27.60003662,0.43003403
'0:15.625',1.08998138,-0.46005280,-0.21003037,27.60003662,0.43003403
'0:15.750',1.08998138,-0.46005280,-0.21003037,27.60003662,0.43003403
'0:15.875',1.08998138,-0.46005280,-0.20001282,27.60003662,0.43003403
'0:16.000',1.08998138,-0.47005554,-0.21003037,27.60003662,0.42900323
'0:16.125',1.08998138,-0.47005554,-0.21003037,27.60003662,0.43003403
'0:16.250',1.08998138,-0.47005554,-0.20001282,27.60003662,0.43003403
'0:16.375',1.07998352,-0.47005554,-0.20001282,27.60003662,0.43003403
'0:16.500',1.08998138,-0.47005554,-0.20001282,27.60003662,0.43003403
'0:16.625',1.08998138,-0.47005554,-0.20001282,27.60003662,0.43003403
'0:16.750',1.08998138,-0.47005554,-0.20001282,27.60003662,0.43003403
'0:16.875',1.08998138,-0.47005554,-0.21003037,27.60003662,0.43003403
'0:17.000',1.07998352,-0.47005554,-0.21003037,27.60003662,0.43003403
'0:17.125',1.07998352,-0.47005554,-0.20001282,27.60003662,0.43003403
'0:17.250',1.07998352,-0.47005554,-0.21003037,27.60003662,0.43003403
'0:17.375',1.08998138,-0.47005554,-0.21003037,27.60003662,0.43003403
'0:17.500',1.08998138,-0.47005554,-0.20001282,27.60003662,0.43003403
'0:17.625',1.08998138,-0.47005554,-0.21003037,27.60003662,0.43003403
'0:17.750',1.08998138,-0.46005280,-0.20001282,27.60003662,0.42900323
'0:17.875',1.08998138,-0.47005554,-0.20001282,27.60003662,0.42700607
'0:18.000',1.08998138,-0.47005554,-0.20001282,27.60003662,0.43003403
'0:18.125',1.08998138,-0.47005554,-0.20001282,27.60003662,0.42700607
'0:18.250',1.08998138,-0.47005554,-0.20001282,27.60003662,0.42803687
'0:18.375',1.08998138,-0.46005280,-0.21003037,27.60003662,0.42803687
'0:18.500',1.08998138,-0.47005554,-0.20001282,27.60003662,0.42803687
'0:18.625',1.08998138,-0.47005554,-0.20001282,27.60003662,0.42404254
'0:18.750',1.08998138,-0.46005280,-0.21003037,27.60003662,0.42404254
'0:18.875',1.09997925,-0.46005280,-0.20001282,27.60003662,0.42404254
'0:19.000',1.08998138,-0.46005280,-0.20001282,27.60003662,0.42803687
'0:19.125',1.08998138,-0.46005280,-0.20001282,27.60003662,0.42301175
'0:19.250',1.08998138,-0.46005280,-0.20001282,27.60003662,0.42404254
'0:19.375',1.08998138,-0.46005280,-0.21003037,27.60003662,0.42301175
'0:19.500',1.08998138,-0.46005280,-0.20001282,27.60003662,0.42404254
'0:19.625',1.09997925,-0.46005280,-0.21003037,27.60003662,0.42404254
'0:19.750',1.08998138,-0.46005280,-0.20001282,27.60003662,0.42404254
'0:19.875',1.08998138,-0.46005280,-0.20001282,27.60003662,0.42404254
'0:20.000',1.09997925,-0.46005280,-0.21003037,27.60003662,0.42404254
'0:20.125',1.07998352,-0.46005280,-0.20001282,27.60003662,0.42404254
'0:20.250',1.08998138,-0.47005554,-0.20001282,27.60003662,0.42404254
'0:20.375',1.07998352,-0.46005280,-0.21003037,27.60003662,0.42404254
'0:20.500',1.08998138,-0.47005554,-0.20001282,27.60003662,0.42404254
'0:20.625',1.08998138,-0.46005280,-0.21003037,27.60003662,0.42301175
'0:20.750',1.08998138,-0.47005554,-0.20001282,27.60003662,0.42404254
'0:20.875',1.08998138,-0.47005554,-0.21003037,27.60003662,0.42301175
'0:21.000',1.07998352,-0.47005554,-0.20001282,27.60003662,0.42404254
'0:21.125',1.07998352,-0.47005554,-0.20001282,27.60003662,0.42404254
'0:21.250',1.07998352,-0.47005554,-0.21003037,27.60003662,0.42404254
'0:21.375',1.07998352,-0.47005554,-0.21003037,27.90005493,0.42404254
'0:21.500',1.07998352,-0.47005554,-0.21003037,27.60003662,0.42404254
'0:21.625',1.07998352,-0.47005554,-0.21003037,27.60003662,0.42404254
'0:21.750',1.07998352,-0.48005829,-0.21003037,27.60003662,0.42404254
'0:21.875',1.07998352,-0.47005554,-0.21003037,27.60003662,0.42404254
'0:22.000',1.07998352,-0.47005554,-0.21003037,27.60003662,0.42404254
'0:22.125',1.07998352,-0.47005554,-0.20001282,27.60003662,0.42803687
'0:22.250',1.07998352,-0.47005554,-0.20001282,27.60003662,0.42404254
'0:22.375',1.08998138,-0.47005554,-0.21003037,27.60003662,0.42404254
'0:22.500',1.08998138,-0.47005554,-0.20001282,27.60003662,0.42301175
'0:22.625',1.07998352,-0.47005554,-0.20001282,27.60003662,0.42803687
'0:22.750',1.08998138,-0.47005554,-0.20001282,27.60003662,0.42803687
'0:22.875',1.08998138,-0.47005554,-0.21003037,27.60003662,0.42404254
'0:23.000',1.07998352,-0.46005280,-0.21003037,27.90005493,0.42404254
'0:23.125',1.09997925,-0.47005554,-0.20001282,27.60003662,0.42301175
'0:23.250',1.08998138,-0.46005280,-0.20001282,27.60003662,0.42404254
'0:23.375',1.08998138,-0.46005280,-0.21003037,27.60003662,0.42301175
'0:23.500',1.08998138,-0.47005554,-0.20001282,27.60003662,0.42404254
'0:23.625',1.08998138,-0.47005554,-0.20001282,27.60003662,0.42404254
'0:23.750',1.08998138,-0.46005280,-0.20001282,27.60003662,0.42404254
'0:23.875',1.08998138,-0.46005280,-0.21003037,27.60003662,0.42301175
'0:24.000',1.08998138,-0.46005280,-0.21003037,27.60003662,0.42404254
'0:24.125',1.08998138,-0.46005280,-0.20001282,27.60003662,0.42404254
'0:24.250',1.08998138,-0.46005280,-0.21003037,27.60003662,0.42404254
'0:24.375',1.08998138,-0.46005280,-0.20001282,27.60003662,0.42404254
'0:24.500',1.07998352,-0.47005554,-0.21003037,27.60003662,0.42404254
'0:24.625',1.08998138,-0.47005554,-0.20001282,27.60003662,0.42301175
'0:24.750',1.08998138,-0.46005280,-0.21003037,27.60003662,0.42404254
'0:24.875',1.08998138,-0.46005280,-0.21003037,27.90005493,0.42301175
'0:25.000',1.08998138,-0.47005554,-0.21003037,27.90005493,0.42301175
'0:25.125',1.08998138,-0.47005554,-0.20001282,27.60003662,0.42404254
'0:25.250',1.08998138,-0.46005280,-0.21003037,27.60003662,0.42404254
'0:25.375',1.07998352,-0.47005554,-0.21003037,27.60003662,0.42404254
'0:25.500',1.07998352,-0.47005554,-0.21003037,27.60003662,0.42404254
'0:25.625',1.07998352,-0.47005554,-0.21003037,27.60003662,0.42404254
'0:25.750',1.08998138,-0.47005554,-0.21003037,27.60003662,0.42404254
'0:25.875',1.08998138,-0.47005554,-0.21003037,27.60003662,0.42301175
'0:26.000',1.07998352,-0.47005554,-0.20001282,27.60003662,0.42301175
'0:26.125',1.08998138,-0.47005554,-0.21003037,27.60003662,0.42404254
'0:26.250',1.07998352,-0.47005554,-0.21003037,27.90005493,0.42404254
'0:26.375',1.07998352,-0.47005554,-0.21003037,27.60003662,0.42404254
'0:26.500',1.07998352,-0.47005554,-0.21003037,27.90005493,0.42404254
'0:26.625',1.08998138,-0.48005829,-0.20001282,27.90005493,0.42301175
'0:26.750',1.07998352,-0.47005554,-0.21003037,27.90005493,0.42404254
'0:26.875',1.08998138,-0.47005554,-0.21003037,27.60003662,0.42404254
'0:27.000',1.07998352,-0.47005554,-0.20001282,27.90005493,0.42404254
'0:27.125',1.07998352,-0.47005554,-0.20001282,27.60003662,0.42404254
'0:27.250',1.08998138,-0.46005280,-0.20001282,27.60003662,0.42404254
'0:27.375',1.08998138,-0.46005280,-0.21003037,27.60003662,0.42404254
'0:27.500',1.08998138,-0.47005554,-0.21003037,27.90005493,0.42404254
'0:27.625',1.08998138,-0.46005280,-0.20001282,27.90005493,0.42404254
'0:27.750',1.08998138,-0.46005280,-0.21003037,27.90005493,0.42404254
'0:27.875',1.08998138,-0.46005280,-0.21003037,27.90005493,0.42404254
'0:28.000',1.08998138,-0.47005554,-0.20001282,27.90005493,0.42301175
'0:28.125',1.08998138,-0.46005280,-0.21003037,27.90005493,0.42404254
'0:28.250',1.08998138,-0.46005280,-0.20001282,27.90005493,0.42404254
'0:28.375',1.08998138,-0.46005280,-0.21003037,27.90005493,0.42404254
'0:28.500',1.07998352,-0.47005554,-0.20001282,27.90005493,0.42301175
'0:28.625',1.08998138,-0.46005280,-0.20001282,27.90005493,0.42101459
'0:28.750',1.08998138,-0.46005280,-0.20001282,27.90005493,0.42404254
'0:28.875',1.08998138,-0.46005280,-0.21003037,27.90005493,0.42404254
'0:29.000',1.08998138,-0.46005280,-0.21003037,27.90005493,0.42404254
'0:29.125',1.08998138,-0.47005554,-0.20001282,27.90005493,0.42101459
'0:29.250',1.08998138,-0.45005005,-0.20001282,27.90005493,0.42404254
'0:29.375',1.08998138,-0.46005280,-0.20001282,27.90005493,0.42404254
'0:29.500',1.08998138,-0.47005554,-0.20001282,27.60003662,0.42404254
'0:29.625',1.08998138,-0.46005280,-0.20001282,27.90005493,0.41805106
'0:29.750',1.08998138,-0.46005280,-0.20001282,27.90005493,0.42101459
'0:29.875',1.07998352,-0.46005280,-0.21003037,27.90005493,0.42404254
'0:30.000',1.08998138,-0.46005280,-0.20001282,27.90005493,0.42101459
'0:30.125',1.08998138,-0.46005280,-0.20001282,27.90005493,0.42101459
'0:30.250',1.08998138,-0.47005554,-0.20001282,27.90005493,0.41702026
'0:30.375',1.08998138,-0.47005554,-0.20001282,27.90005493,0.41702026
'0:30.500',1.08998138,-0.46005280,-0.20001282,27.90005493,0.41805106
'0:30.625',1.07998352,-0.47005554,-0.21003037,27.90005493,0.41805106
'0:30.750',1.08998138,-0.47005554,-0.20001282,27.90005493,0.41805106
'0:30.875',1.08998138,-0.47005554,-0.21003037,27.90005493,0.41805106
'0:31.000',1.08998138,-0.47005554,-0.21003037,27.90005493,0.41805106
'0:31.125',1.07998352,-0.47005554,-0.20001282,27.90005493,0.41805106
'0:31.250',1.08998138,-0.47005554,-0.21003037,27.90005493,0.41805106
'0:31.375',1.07998352,-0.47005554,-0.20001282,27.90005493,0.41805106
'0:31.500',1.08998138,-0.47005554,-0.21003037,27.90005493,0.41805106
'0:31.625',1.08998138,-0.47005554,-0.21003037,27.90005493,0.41805106
'0:31.750',1.08998138,-0.47005554,-0.21003037,27.90005493,0.41702026
'0:31.875',1.07998352,-0.47005554,-0.20001282,27.90005493,0.41805106
'0:32.000',1.08998138,-0.47005554,-0.20001282,27.90005493,0.41805106
'0:32.125',1.08998138,-0.47005554,-0.21003037,27.90005493,0.41805106
'0:32.250',1.08998138,-0.46005280,-0.21003037,27.90005493,0.41805106
'0:32.375',1.07998352,-0.47005554,-0.20001282,27.90005493,0.41805106
'0:32.500',1.08998138,-0.46005280,-0.21003037,27.90005493,0.41805106
'0:32.625',1.08998138,-0.47005554,-0.21003037,27.90005493,0.41805106
'0:32.750',1.08998138,-0.47005554,-0.20001282,27.90005493,0.41805106
'0:32.875',1.07998352,-0.46005280,-0.21003037,27.90005493,0.41805106
'0:33.000',1.08998138,-0.46005280,-0.20001282,27.90005493,0.41805106
'0:33.125',1.08998138,-0.46005280,-0.20001282,27.90005493,0.41805106
'0:33.250',1.08998138,-0.46005280,-0.20001282,27.90005493,0.41805106
'0:33.375',1.08998138,-0.46005280,-0.21003037,27.90005493,0.41805106
'0:33.500',1.08998138,-0.46005280,-0.21003037,27.90005493,0.41702026
'0:33.625',1.08998138,-0.47005554,-0.21003037,27.90005493,0.41805106
'0:33.750',1.07998352,-0.46005280,-0.21003037,27.90005493,0.41805106
'0:33.875',1.08998138,-0.46005280,-0.20001282,27.90005493,0.41805106
'0:34.000',1.07998352,-0.46005280,-0.21003037,27.90005493,0.41805106
'0:34.125',1.08998138,-0.46005280,-0.20001282,27.90005493,0.41805106
'0:34.250',1.08998138,-0.46005280,-0.21003037,27.90005493,0.41502310
'0:34.375',1.08998138,-0.46005280,-0.20001282,27.90005493,0.41502310
'0:34.500',1.08998138,-0.46005280,-0.20001282,27.90005493,0.41805106
'0:34.625',1.07998352,-0.46005280,-0.20001282,27.90005493,0.41805106
'0:34.750',1.08998138,-0.46005280,-0.20001282,27.90005493,0.41502310
'0:34.875',1.08998138,-0.47005554,-0.20001282,27.90005493,0.41805106
'0:35.000',1.07998352,-0.47005554,-0.20001282,27.90005493,0.41702026
'0:35.125',1.08998138,-0.46005280,-0.20001282,27.90005493,0.41205957
'0:35.250',1.08998138,-0.47005554,-0.20001282,27.90005493,0.41205957
'0:35.375',1.08998138,-0.46005280,-0.21003037,27.90005493,0.41502310
'0:35.500',1.08998138,-0.46005280,-0.20001282,27.90005493,0.41805106
'0:35.625',1.08998138,-0.47005554,-0.21003037,27.90005493,0.41205957
'0:35.750',1.08998138,-0.47005554,-0.20001282,27.90005493,0.41205957
'0:35.875',1.08998138,-0.47005554,-0.20001282,27.90005493,0.41102878
'0:36.000',1.08998138,-0.47005554,-0.21003037,27.90005493,0.41205957
'0:36.125',1.08998138,-0.46005280,-0.21003037,27.90005493,0.41102878
'0:36.250',1.08998138,-0.46005280,-0.21003037,27.90005493,0.41205957
'0:36.375',1.08998138,-0.47005554,-0.20001282,27.90005493,0.41205957
'0:36.500',1.08998138,-0.47005554,-0.21003037,27.90005493,0.41205957
'0:36.625',1.08998138,-0.47005554,-0.21003037,27.90005493,0.41205957
'0:36.750',1.07998352,-0.47005554,-0.21003037,27.90005493,0.41205957
'0:36.875',1.08998138,-0.47005554,-0.21003037,27.90005493,0.41205957
'0:37.000',1.08998138,-0.46005280,-0.21003037,27.90005493,0.41205957
'0:37.125',1.07998352,-0.47005554,-0.20001282,27.90005493,0.41205957
'0:37.250',1.07998352,-0.46005280,-0.21003037,27.90005493,0.41205957
'0:37.375',1.08998138,-0.47005554,-0.20001282,27.90005493,0.41205957
'0:37.500',1.07998352,-0.47005554,-0.21003037,27.90005493,0.41205957
'0:37.625',1.08998138,-0.47005554,-0.20001282,27.90005493,0.41205957
'0:37.750',1.08998138,-0.46005280,-0.21003037,27.90005493,0.41205957
'0:37.875',1.08998138,-0.46005280,-0.21003037,27.90005493,0.41205957
'0:38.000',1.08998138,-0.46005280,-0.20001282,28.10003967,0.41205957
'0:38.125',1.08998138,-0.46005280,-0.20001282,28.10003967,0.41205957
'0:38.250',1.08998138,-0.46005280,-0.21003037,27.90005493,0.41205957
'0:38.375',1.08998138,-0.46005280,-0.20001282,27.90005493,0.41006241
'0:38.500',1.08998138,-0.47005554,-0.20001282,28.10003967,0.40903162
'0:38.625',1.08998138,-0.46005280,-0.21003037,28.10003967,0.40600366
'0:38.750',1.08998138,-0.46005280,-0.20001282,28.10003967,0.41006241
'0:38.875',1.08998138,-0.46005280,-0.20001282,28.10003967,0.40600366
'0:39.000',1.08998138,-0.46005280,-0.21003037,27.90005493,0.40600366
'0:39.125',1.09997925,-0.46005280,-0.20001282,27.90005493,0.41006241
'0:39.250',1.08998138,-0.46005280,-0.21003037,27.90005493,0.40600366
'0:39.375',1.07998352,-0.46005280,-0.20001282,27.90005493,0.40600366
'0:39.500',1.08998138,-0.46005280,-0.21003037,27.90005493,0.41006241
'0:39.625',1.09997925,-0.46005280,-0.21003037,28.10003967,0.41006241
'0:39.750',1.08998138,-0.46005280,-0.20001282,28.10003967,0.41006241
'0:39.875',1.07998352,-0.46005280,-0.21003037,28.10003967,0.40903162
'0:40.000',1.08998138,-0.46005280,-0.21003037,27.90005493,0.41006241
'0:40.125',1.08998138,-0.46005280,-0.21003037,27.90005493,0.41205957
'0:40.250',1.08998138,-0.46005280,-0.21003037,27.90005493,0.40600366
'0:40.375',1.08998138,-0.46005280,-0.21003037,27.90005493,0.41006241
'0:40.500',1.08998138,-0.47005554,-0.21003037,27.90005493,0.41006241
'0:40.625',1.08998138,-0.47005554,-0.21003037,27.90005493,0.41006241
'0:40.750',1.07998352,-0.47005554,-0.21003037,27.90005493,0.40600366
'0:40.875',1.08998138,-0.46005280,-0.20001282,27.90005493,0.40903162
'0:41.000',1.08998138,-0.47005554,-0.21003037,28.10003967,0.40600366
'0:41.125',1.07998352,-0.47005554,-0.21003037,27.90005493,0.41006241
'0:41.250',1.08998138,-0.46005280,-0.21003037,28.10003967,0.41006241
'0:41.375',1.07998352,-0.47005554,-0.20001282,28.10003967,0.41006241
'0:41.500',1.07998352,-0.47005554,-0.20001282,28.10003967,0.40600366
'0:41.625',1.08998138,-0.47005554,-0.20001282,28.10003967,0.40600366
'0:41.750',1.08998138,-0.46005280,-0.20001282,28.10003967,0.40600366
'0:41.875',1.07998352,-0.47005554,-0.20001282,28.10003967,0.40503729
'0:42.000',1.08998138,-0.46005280,-0.21003037,28.10003967,0.41006241
'0:42.125',1.08998138,-0.46005280,-0.21003037,28.10003967,0.40600366
'0:42.250',1.08998138,-0.46005280,-0.20001282,28.10003967,0.40600366
'0:42.375',1.08998138,-0.47005554,-0.21003037,28.10003967,0.40600366
'0:42.500',1.08998138,-0.47005554,-0.21003037,28.10003967,0.40600366
'0:42.625',1.08998138,-0.46005280,-0.21003037,28.10003967,0.40600366
'0:42.750',1.08998138,-0.46005280,-0.21003037,28.10003967,0.40600366
'0:42.875',1.08998138,-0.46005280,-0.21003037,28.10003967,0.40600366
'0:43.000',1.08998138,-0.46005280,-0.21003037,28.10003967,0.40503729
'0:43.125',1.08998138,-0.46005280,-0.20001282,28.10003967,0.40600366
'0:43.250',1.08998138,-0.46005280,-0.20001282,28.10003967,0.40600366
'0:43.375',1.08998138,-0.46005280,-0.21003037,28.10003967,0.40600366
'0:43.500',1.08998138,-0.46005280,-0.21003037,28.10003967,0.40600366
'0:43.625',1.08998138,-0.46005280,-0.21003037,28.10003967,0.40600366
'0:43.750',1.08998138,-0.46005280,-0.20001282,28.10003967,0.40600366
'0:43.875',1.08998138,-0.46005280,-0.20001282,28.10003967,0.40600366
'0:44.000',1.08998138,-0.46005280,-0.21003037,28.10003967,0.40600366
'0:44.125',1.08998138,-0.46005280,-0.21003037,28.10003967,0.40600366
'0:44.250',1.08998138,-0.46005280,-0.21003037,28.10003967,0.40600366
'0:44.375',1.07998352,-0.46005280,-0.21003037,28.10003967,0.40600366
'0:44.500',1.08998138,-0.46005280,-0.21003037,28.10003967,0.40600366
'0:44.625',1.08998138,-0.46005280,-0.20001282,28.10003967,0.40600366
'0:44.750',1.08998138,-0.46005280,-0.21003037,28.10003967,0.40600366
'0:44.875',1.07998352,-0.46005280,-0.20001282,28.10003967,0.40600366
'0:45.000',1.07998352,-0.46005280,-0.21003037,28.10003967,0.40600366
'0:45.125',1.08998138,-0.47005554,-0.20001282,28.10003967,0.40503729
'0:45.250',1.08998138,-0.47005554,-0.21003037,28.10003967,0.40600366
'0:45.375',1.08998138,-0.46005280,-0.20001282,28.10003967,0.40600366
'0:45.500',1.07998352,-0.47005554,-0.21003037,28.10003967,0.40600366
'0:45.625',1.08998138,-0.46005280,-0.21003037,28.10003967,0.40600366
'0:45.750',1.08998138,-0.47005554,-0.21003037,28.10003967,0.40600366
'0:45.875',1.08998138,-0.47005554,-0.21003037,28.10003967,0.40600366
'0:46.000',1.08998138,-0.47005554,-0.21003037,28.10003967,0.40600366
'0:46.125',1.07998352,-0.47005554,-0.21003037,28.10003967,0.40304013
'0:46.250',1.08998138,-0.47005554,-0.21003037,28.10003967,0.40600366
'0:46.375',1.08998138,-0.47005554,-0.21003037,28.10003967,0.40600366
'0:46.500',1.08998138,-0.47005554,-0.21003037,28.10003967,0.40600366
'0:46.625',1.08998138,-0.46005280,-0.21003037,28.10003967,0.40600366
'0:46.750',1.08998138,-0.47005554,-0.20001282,28.10003967,0.40600366
'0:46.875',1.08998138,-0.47005554,-0.21003037,28.10003967,0.40600366
'0:47.000',1.07998352,-0.46005280,-0.21003037,28.10003967,0.40600366
'0:47.125',1.08998138,-0.46005280,-0.21003037,28.10003967,0.40304013
'0:47.250',1.08998138,-0.46005280,-0.21003037,28.10003967,0.40304013
'0:47.375',1.08998138,-0.46005280,-0.21003037,28.10003967,0.40304013
'0:47.500',1.07998352,-0.47005554,-0.20001282,28.10003967,0.40304013
'0:47.625',1.08998138,-0.46005280,-0.20001282,28.10003967,0.40304013
'0:47.750',1.08998138,-0.46005280,-0.20001282,28.10003967,0.40304013
'0:47.875',1.08998138,-0.46005280,-0.21003037,28.10003967,0.40304013
'0:48.000',1.08998138,-0.46005280,-0.21003037,28.10003967,0.40304013
'0:48.125',1.07998352,-0.47005554,-0.21003037,28.10003967,0.40304013
'0:48.250',1.07998352,-0.46005280,-0.21003037,28.10003967,0.40304013
'0:48.375',1.08998138,-0.46005280,-0.20001282,28.10003967,0.40001218
'0:48.500',1.07998352,-0.46005280,-0.21003037,28.10003967,0.40304013
'0:48.625',1.08998138,-0.46005280,-0.21003037,28.10003967,0.40304013
'0:48.750',1.07998352,-0.46005280,-0.21003037,28.10003967,0.40001218
'0:48.875',1.08998138,-0.47005554,-0.20001282,28.10003967,0.40001218
'0:49.000',1.08998138,-0.46005280,-0.21003037,28.10003967,0.40304013
'0:49.125',1.08998138,-0.46005280,-0.21003037,28.10003967,0.40001218
'0:49.250',1.08998138,-0.46005280,-0.20001282,28.10003967,0.40001218
'0:49.375',1.07998352,-0.47005554,-0.20001282,28.10003967,0.40001218
'0:49.500',1.08998138,-0.46005280,-0.21003037,28.10003967,0.40001218
'0:49.625',1.08998138,-0.46005280,-0.20001282,28.10003967,0.40001218
'0:49.750',1.08998138,-0.47005554,-0.21003037,28.10003967,0.40001218
'0:49.875',1.08998138,-0.46005280,-0.21003037,28.10003967,0.40001218
'0:50.000',1.07998352,-0.46005280,-0.20001282,28.10003967,0.40001218
'0:50.125',1.08998138,-0.46005280,-0.21003037,28.10003967,0.40001218
'0:50.250',1.08998138,-0.47005554,-0.21003037,28.10003967,0.40001218
'0:50.375',1.07998352,-0.47005554,-0.21003037,28.10003967,0.40001218
'0:50.500',1.07998352,-0.47005554,-0.21003037,28.10003967,0.40001218
'0:50.625',1.07998352,-0.47005554,-0.21003037,28.10003967,0.40001218
'0:50.750',1.08998138,-0.47005554,-0.21003037,28.10003967,0.40001218
'0:50.875',1.08998138,-0.47005554,-0.20001282,28.10003967,0.40001218
'0:51.000',1.07998352,-0.47005554,-0.20001282,28.10003967,0.40001218
'0:51.125',1.08998138,-0.47005554,-0.20001282,28.10003967,0.40001218
'0:51.250',1.07998352,-0.47005554,-0.20001282,28.30002441,0.40001218
'0:51.375',1.07998352,-0.46005280,-0.20001282,28.10003967,0.40001218
'0:51.500',1.07998352,-0.47005554,-0.21003037,28.10003967,0.40001218
'0:51.625',1.08998138,-0.46005280,-0.21003037,28.30002441,0.40001218
'0:51.750',1.08998138,-0.46005280,-0.21003037,28.10003967,0.40001218
'0:51.875',1.08998138,-0.46005280,-0.21003037,28.30002441,0.40001218
'0:52.000',1.08998138,-0.46005280,-0.21003037,28.10003967,0.40001218
'0:52.125',1.08998138,-0.46005280,-0.20001282,28.10003967,0.40001218
'0:52.250',1.08998138,-0.46005280,-0.21003037,28.30002441,0.39801502
'0:52.375',1.08998138,-0.46005280,-0.21003037,28.10003967,0.39704865
'0:52.500',1.07998352,-0.46005280,-0.20001282,28.30002441,0.39505148
'0:52.625',1.08998138,-0.46005280,-0.20001282,28.10003967,0.39704865
'0:52.750',1.07998352,-0.46005280,-0.21003037,28.30002441,0.39704865
'0:52.875',1.08998138,-0.46005280,-0.21003037,28.30002441,0.39505148
'0:53.000',1.09997925,-0.46005280,-0.21003037,28.10003967,0.39505148
'0:53.125',1.07998352,-0.47005554,-0.20001282,28.10003967,0.39505148
'0:53.250',1.08998138,-0.46005280,-0.20001282,28.30002441,0.39505148
'0:53.375',1.08998138,-0.46005280,-0.20001282,28.30002441,0.39505148
'0:53.500',1.08998138,-0.46005280,-0.20001282,28.30002441,0.39505148
'0:53.625',1.08998138,-0.46005280,-0.20001282,28.10003967,0.39505148
'0:53.750',1.08998138,-0.46005280,-0.21003037,28.10003967,0.39704865
'0:53.875',1.08998138,-0.46005280,-0.20001282,28.30002441,0.39505148
'0:54.000',1.07998352,-0.46005280,-0.20001282,28.30002441,0.39505148
'0:54.125',1.08998138,-0.46005280,-0.20001282,28.10003967,0.39505148
'0:54.250',1.08998138,-0.46005280,-0.21003037,28.10003967,0.39505148
'0:54.375',1.08998138,-0.46005280,-0.20001282,28.10003967,0.39505148
'0:54.500',1.08998138,-0.46005280,-0.21003037,28.30002441,0.39505148
'0:54.625',1.08998138,-0.46005280,-0.21003037,28.10003967,0.39505148
'0:54.750',1.08998138,-0.46005280,-0.21003037,28.30002441,0.39505148
'0:54.875',1.08998138,-0.46005280,-0.20001282,28.30002441,0.39505148
'0:55.000',1.09997925,-0.46005280,-0.21003037,28.30002441,0.39505148
'0:55.125',1.07998352,-0.46005280,-0.20001282,28.10003967,0.39505148
'0:55.250',1.08998138,-0.46005280,-0.21003037,28.10003967,0.39505148
'0:55.375',1.08998138,-0.46005280,-0.20001282,28.30002441,0.39505148
'0:55.500',1.08998138,-0.47005554,-0.21003037,28.30002441,0.39105716
'0:55.625',1.07998352,-0.46005280,-0.21003037,28.30002441,0.39505148
'0:55.750',1.08998138,-0.46005280,-0.21003037,28.30002441,0.39505148
'0:55.875',1.07998352,-0.46005280,-0.21003037,28.30002441,0.39505148
'0:56.000',1.07998352,-0.47005554,-0.20001282,28.10003967,0.39505148
'0:56.125',1.08998138,-0.47005554,-0.21003037,28.30002441,0.39505148
'0:56.250',1.08998138,-0.46005280,-0.21003037,28.30002441,0.39505148
'0:56.375',1.07998352,-0.47005554,-0.21003037,28.50000916,0.38906000
'0:56.500',1.07998352,-0.47005554,-0.21003037,28.50000916,0.39105716
'0:56.625',1.07998352,-0.47005554,-0.21003037,28.50000916,0.38906000
'0:56.750',1.08998138,-0.47005554,-0.21003037,28.50000916,0.39105716
'0:56.875',1.08998138,-0.47005554,-0.21003037,28.30002441,0.39105716
'0:57.000',1.08998138,-0.46005280,-0.20001282,28.10003967,0.39505148
'0:57.125',1.08998138,-0.46005280,-0.20001282,28.30002441,0.39505148
'0:57.250',1.08998138,-0.46005280,-0.20001282,28.30002441,0.39105716
'0:57.375',1.08998138,-0.46005280,-0.20001282,28.30002441,0.39105716
'0:57.500',1.08998138,-0.46005280,-0.20001282,28.30002441,0.39505148
'0:57.625',1.08998138,-0.46005280,-0.21003037,28.30002441,0.39105716
'0:57.750',1.08998138,-0.46005280,-0.21003037,28.30002441,0.39105716
'0:57.875',1.07998352,-0.46005280,-0.20001282,28.30002441,0.38906000
'0:58.000',1.08998138,-0.46005280,-0.21003037,28.30002441,0.38906000
'0:58.125',1.07998352,-0.46005280,-0.21003037,28.30002441,0.39105716
'0:58.250',1.08998138,-0.46005280,-0.21003037,28.30002441,0.38906000
'0:58.375',1.08998138,-0.46005280,-0.20001282,28.30002441,0.39202353
'0:58.500',1.08998138,-0.46005280,-0.21003037,28.30002441,0.38906000
'0:58.625',1.08998138,-0.46005280,-0.20001282,28.30002441,0.38906000
'0:58.750',1.08998138,-0.46005280,-0.21003037,28.30002441,0.38906000
'0:58.875',1.07998352,-0.46005280,-0.21003037,28.30002441,0.38906000
'0:59.000',1.08998138,-0.46005280,-0.20001282,28.30002441,0.38906000
'0:59.125',1.08998138,-0.46005280,-0.21003037,28.30002441,0.38906000
'0:59.250',1.08998138,-0.46005280,-0.21003037,28.30002441,0.38906000
'0:59.375',1.08998138,-0.46005280,-0.21003037,28.30002441,0.38906000
'0:59.500',1.08998138,-0.45005005,-0.21003037,28.30002441,0.38906000
'0:59.625',1.08998138,-0.46005280,-0.21003037,28.30002441,0.38906000
'0:59.750',1.07998352,-0.46005280,-0.21003037,28.30002441,0.38906000
'0:59.875',1.08998138,-0.46005280,-0.20001282,28.30002441,0.38906000
'1:00.000',1.07998352,-0.46005280,-0.21003037,28.30002441,0.38906000
'1:00.125',1.08998138,-0.46005280,-0.21003037,28.30002441,0.38906000
'1:00.250',1.07998352,-0.46005280,-0.21003037,28.30002441,0.38906000
'1:00.375',1.08998138,-0.47005554,-0.20001282,28.30002441,0.38906000
'1:00.500',1.08998138,-0.47005554,-0.21003037,28.30002441,0.38906000
'1:00.625',1.08998138,-0.46005280,-0.20001282,28.30002441,0.38906000
'1:00.750',1.08998138,-0.47005554,-0.21003037,28.30002441,0.38906000
'1:00.875',1.07998352,-0.46005280,-0.21003037,28.30002441,0.38906000
'1:01.000',1.08998138,-0.47005554,-0.20001282,28.30002441,0.38906000
'1:01.125',1.07998352,-0.46005280,-0.20001282,28.30002441,0.38906000
'1:01.250',1.08998138,-0.47005554,-0.21003037,28.30002441,0.38906000
'1:01.375',1.08998138,-0.46005280,-0.20001282,28.30002441,0.38906000
'1:01.500',1.07998352,-0.47005554,-0.21003037,28.30002441,0.38906000
'1:01.625',1.08998138,-0.46005280,-0.20001282,28.30002441,0.38906000
'1:01.750',1.08998138,-0.46005280,-0.21003037,28.30002441,0.38906000
'1:01.875',1.07998352,-0.46005280,-0.20001282,28.30002441,0.38906000
'1:02.000',1.08998138,-0.46005280,-0.21003037,28.30002441,0.38906000
'1:02.125',1.08998138,-0.46005280,-0.20001282,28.30002441,0.38906000
'1:02.250',1.08998138,-0.46005280,-0.21003037,28.30002441,0.38906000
'1:02.375',1.07998352,-0.46005280,-0.21003037,28.30002441,0.38603204
'1:02.500',1.07998352,-0.46005280,-0.21003037,28.30002441,0.38603204
'1:02.625',1.08998138,-0.45005005,-0.21003037,28.30002441,0.38603204
'1:02.750',1.08998138,-0.45005005,-0.21003037,28.30002441,0.38603204
'1:02.875',1.08998138,-0.46005280,-0.21003037,28.30002441,0.38300409
'1:03.000',1.08998138,-0.46005280,-0.20001282,28.30002441,0.38603204
'1:03.125',1.08998138,-0.46005280,-0.20001282,28.30002441,0.38300409
'1:03.250',1.07998352,-0.46005280,-0.20001282,28.30002441,0.38906000
'1:03.375',1.08998138,-0.46005280,-0.21003037,28.30002441,0.38300409
'1:03.500',1.08998138,-0.46005280,-0.20001282,28.30002441,0.38603204
'1:03.625',1.08998138,-0.46005280,-0.21003037,28.30002441,0.38603204
'1:03.750',1.08998138,-0.46005280,-0.21003037,28.30002441,0.38603204
'1:03.875',1.08998138,-0.46005280,-0.21003037,28.30002441,0.38603204
'1:04.000',1.08998138,-0.46005280,-0.21003037,28.30002441,0.38300409
'1:04.125',1.07998352,-0.47005554,-0.20001282,28.30002441,0.38603204
'1:04.250',1.08998138,-0.46005280,-0.21003037,28.30002441,0.38603204
'1:04.375',1.07998352,-0.46005280,-0.21003037,28.30002441,0.38300409
'1:04.500',1.08998138,-0.46005280,-0.21003037,28.30002441,0.38300409
'1:04.625',1.07998352,-0.46005280,-0.21003037,28.30002441,0.38603204
'1:04.750',1.08998138,-0.47005554,-0.21003037,28.30002441,0.38300409
'1:04.875',1.08998138,-0.46005280,-0.21003037,28.30002441,0.38603204
'1:05.000',1.08998138,-0.47005554,-0.20001282,28.30002441,0.38300409
'1:05.125',1.08998138,-0.47005554,-0.21003037,28.30002441,0.38300409
'1:05.250',1.07998352,-0.47005554,-0.20001282,28.30002441,0.38300409
'1:05.375',1.08998138,-0.47005554,-0.21003037,28.30002441,0.38300409
'1:05.500',1.08998138,-0.47005554,-0.21003037,28.30002441,0.38300409
'1:05.625',1.07998352,-0.47005554,-0.21003037,28.30002441,0.38300409
'1:05.750',1.08998138,-0.46005280,-0.21003037,28.30002441,0.38300409
'1:05.875',1.08998138,-0.47005554,-0.20001282,28.50000916,0.38300409
'1:06.000',1.08998138,-0.46005280,-0.21003037,28.30002441,0.38300409
'1:06.125',1.07998352,-0.46005280,-0.20001282,28.30002441,0.38300409
'1:06.250',1.08998138,-0.46005280,-0.20001282,28.30002441,0.38300409
'1:06.375',1.08998138,-0.47005554,-0.21003037,28.30002441,0.38300409
'1:06.500',1.08998138,-0.46005280,-0.20001282,28.30002441,0.38300409
'1:06.625',1.08998138,-0.46005280,-0.21003037,28.30002441,0.38300409
'1:06.750',1.08998138,-0.46005280,-0.21003037,28.30002441,0.38300409
'1:06.875',1.08998138,-0.46005280,-0.21003037,28.30002441,0.38300409
'1:07.000',1.07998352,-0.46005280,-0.20001282,28.30002441,0.38300409
'1:07.125',1.08998138,-0.46005280,-0.20001282,28.30002441,0.38300409
'1:07.250',1.08998138,-0.46005280,-0.21003037,28.30002441,0.38300409
'1:07.375',1.07998352,-0.46005280,-0.21003037,28.30002441,0.38300409
'1:07.500',1.07998352,-0.46005280,-0.20001282,28.30002441,0.38300409
'1:07.625',1.08998138,-0.45005005,-0.21003037,28.30002441,0.38300409
'1:07.750',1.08998138,-0.46005280,-0.21003037,28.30002441,0.38300409
'1:07.875',1.08998138,-0.46005280,-0.20001282,28.50000916,0.38300409
'1:08.000',1.08998138,-0.46005280,-0.20001282,28.30002441,0.38300409
'1:08.125',1.08998138,-0.46005280,-0.20001282,28.30002441,0.38300409
'1:08.250',1.08998138,-0.46005280,-0.21003037,28.30002441,0.38300409
'1:08.375',1.08998138,-0.46005280,-0.21003037,28.50000916,0.38300409
'1:08.500',1.08998138,-0.46005280,-0.21003037,28.30002441,0.38300409
'1:08.625',1.08998138,-0.46005280,-0.21003037,28.50000916,0.38300409
'1:08.750',1.07998352,-0.46005280,-0.21003037,28.30002441,0.38300409
'1:08.875',1.08998138,-0.46005280,-0.20001282,28.30002441,0.38300409
'1:09.000',1.08998138,-0.46005280,-0.20001282,28.30002441,0.38300409
'1:09.125',1.08998138,-0.46005280,-0.21003037,28.50000916,0.38300409
'1:09.250',1.07998352,-0.46005280,-0.20001282,28.50000916,0.38300409
'1:09.375',1.07998352,-0.47005554,-0.20001282,28.30002441,0.38300409
'1:09.500',1.07998352,-0.47005554,-0.21003037,28.50000916,0.38004056
'1:09.625',1.07998352,-0.46005280,-0.20001282,28.50000916,0.38300409
'1:09.750',1.08998138,-0.47005554,-0.21003037,28.50000916,0.38004056
'1:09.875',1.08998138,-0.47005554,-0.20001282,28.30002441,0.38004056
'1:10.000',1.07998352,-0.47005554,-0.21003037,28.30002441,0.38004056
'1:10.125',1.07998352,-0.46005280,-0.21003037,28.30002441,0.38004056
'1:10.250',1.08998138,-0.47005554,-0.21003037,28.30002441,0.38300409
'1:10.375',1.08998138,-0.46005280,-0.20001282,28.50000916,0.38004056
'1:10.500',1.07998352,-0.46005280,-0.21003037,28.50000916,0.37701260
'1:10.625',1.07998352,-0.46005280,-0.21003037,28.50000916,0.37701260
'1:10.750',1.07998352,-0.47005554,-0.20001282,28.50000916,0.37701260
'1:10.875',1.07998352,-0.47005554,-0.21003037,28.50000916,0.37701260
'1:11.000',1.07998352,-0.46005280,-0.21003037,28.50000916,0.37701260
'1:11.125',1.08998138,-0.46005280,-0.21003037,28.50000916,0.37701260
'1:11.250',1.07998352,-0.46005280,-0.20001282,28.50000916,0.37701260
'1:11.375',1.07998352,-0.46005280,-0.21003037,28.30002441,0.37701260
'1:11.500',1.08998138,-0.46005280,-0.20001282,28.50000916,0.37701260
'1:11.625',1.08998138,-0.46005280,-0.21003037,28.30002441,0.37701260
'1:11.750',1.08998138,-0.47005554,-0.20001282,28.30002441,0.38004056
'1:11.875',1.08998138,-0.46005280,-0.20001282,28.50000916,0.38300409
'1:12.000',1.07998352,-0.46005280,-0.21003037,28.50000916,0.38603204
'1:12.125',1.07998352,-0.46005280,-0.20001282,28.50000916,0.38603204
'1:12.250',1.07998352,-0.46005280,-0.20001282,28.50000916,0.38603204
'1:12.375',1.08998138,-0.46005280,-0.21003037,28.50000916,0.38906000
'1:12.500',1.08998138,-0.46005280,-0.20001282,28.30002441,0.38906000
'1:12.625',1.08998138,-0.46005280,-0.21003037,28.50000916,0.38906000
'1:12.750',1.08998138,-0.46005280,-0.20001282,28.50000916,0.38906000
'1:12.875',1.08998138,-0.46005280,-0.20001282,28.30002441,0.38906000
'1:13.000',1.08998138,-0.47005554,-0.21003037,28.50000916,0.38906000
'1:13.125',1.08998138,-0.47005554,-0.20001282,28.50000916,0.38906000
'1:13.250',1.07998352,-0.46005280,-0.20001282,28.50000916,0.38906000
'1:13.375',1.08998138,-0.46005280,-0.21003037,28.50000916,0.38802921
'1:13.500',1.07998352,-0.46005280,-0.20001282,28.50000916,0.38906000
'1:13.625',1.08998138,-0.47005554,-0.20001282,28.50000916,0.38906000
'1:13.750',1.08998138,-0.46005280,-0.21003037,28.50000916,0.38906000
'1:13.875',1.08998138,-0.46005280,-0.21003037,28.50000916,0.38906000
'1:14.000',1.08998138,-0.46005280,-0.21003037,28.50000916,0.38906000
'1:14.125',1.07998352,-0.46005280,-0.21003037,28.50000916,0.38906000
'1:14.250',1.07998352,-0.46005280,-0.21003037,28.50000916,0.38906000
'1:14.375',1.08998138,-0.46005280,-0.21003037,28.50000916,0.38906000
'1:14.500',1.08998138,-0.46005280,-0.21003037,28.50000916,0.38906000
'1:14.625',1.08998138,-0.46005280,-0.20001282,28.50000916,0.38906000
'1:14.750',1.08998138,-0.47005554,-0.20001282,28.50000916,0.38906000
'1:14.875',1.07998352,-0.46005280,-0.21003037,28.50000916,0.38906000
'1:15.000',1.08998138,-0.46005280,-0.21003037,28.50000916,0.38906000
'1:15.125',1.07998352,-0.46005280,-0.21003037,28.50000916,0.38906000
'1:15.250',1.08998138,-0.46005280,-0.20001282,28.50000916,0.38906000
'1:15.375',1.08998138,-0.46005280,-0.21003037,28.50000916,0.38906000
'1:15.500',1.08998138,-0.46005280,-0.21003037,28.50000916,0.38906000
'1:15.625',1.07998352,-0.46005280,-0.20001282,28.50000916,0.38906000
'1:15.750',1.08998138,-0.46005280,-0.20001282,28.50000916,0.38906000
'1:15.875',1.08998138,-0.46005280,-0.21003037,28.50000916,0.38906000
'1:16.000',1.07998352,-0.46005280,-0.20001282,28.50000916,0.38906000
'1:16.125',1.07998352,-0.46005280,-0.21003037,28.50000916,0.38906000
'1:16.250',1.08998138,-0.46005280,-0.20001282,28.50000916,0.38906000
'1:16.375',1.08998138,-0.46005280,-0.20001282,28.50000916,0.38906000
'1:16.500',1.08998138,-0.46005280,-0.21003037,28.50000916,0.38906000
'1:16.625',1.08998138,-0.46005280,-0.21003037,28.50000916,0.38906000
'1:16.750',1.08998138,-0.46005280,-0.21003037,28.50000916,0.38603204
'1:16.875',1.08998138,-0.46005280,-0.20001282,28.50000916,0.38906000
'1:17.000',1.07998352,-0.46005280,-0.21003037,28.50000916,0.38603204
'1:17.125',1.08998138,-0.46005280,-0.20001282,28.50000916,0.38906000
'1:17.250',1.08998138,-0.46005280,-0.21003037,28.50000916,0.38906000
'1:17.375',1.08998138,-0.45005005,-0.20001282,28.50000916,0.38603204
'1:17.500',1.08998138,-0.46005280,-0.21003037,28.50000916,0.38603204
'1:17.625',1.08998138,-0.46005280,-0.20001282,28.50000916,0.38603204
'1:17.750',1.07998352,-0.46005280,-0.21003037,28.50000916,0.38603204
'1:17.875',1.08998138,-0.46005280,-0.20001282,28.50000916,0.38603204
'1:18.000',1.08998138,-0.46005280,-0.20001282,28.50000916,0.38603204
'1:18.125',1.08998138,-0.45005005,-0.20001282,28.50000916,0.38603204
'1:18.250',1.08998138,-0.46005280,-0.21003037,28.50000916,0.38603204
'1:18.375',1.08998138,-0.46005280,-0.20001282,28.50000916,0.38603204
'1:18.500',1.08998138,-0.47005554,-0.21003037,28.50000916,0.38300409
'1:18.625',1.09997925,-0.46005280,-0.21003037,28.50000916,0.38300409
'1:18.750',1.08998138,-0.47005554,-0.21003037,28.50000916,0.38300409
'1:18.875',1.08998138,-0.46005280,-0.21003037,28.50000916,0.38203772
'1:19.000',1.08998138,-0.47005554,-0.21003037,28.50000916,0.38300409
'1:19.125',1.08998138,-0.46005280,-0.20001282,28.50000916,0.38300409
'1:19.250',1.07998352,-0.46005280,-0.21003037,28.50000916,0.38300409
'1:19.375',1.08998138,-0.47005554,-0.20001282,28.50000916,0.38603204
'1:19.500',1.07998352,-0.46005280,-0.21003037,28.50000916,0.38300409
'1:19.625',1.08998138,-0.47005554,-0.20001282,28.50000916,0.38203772
'1:19.750',1.07998352,-0.46005280,-0.20001282,28.50000916,0.38300409
'1:19.875',1.08998138,-0.47005554,-0.21003037,28.50000916,0.38300409
'1:20.000',1.08998138,-0.46005280,-0.21003037,28.50000916,0.38300409
'1:20.125',1.07998352,-0.46005280,-0.21003037,28.50000916,0.38300409
'1:20.250',1.08998138,-0.45005005,-0.21003037,28.50000916,0.38300409
'1:20.375',1.07998352,-0.46005280,-0.20001282,28.50000916,0.38300409
'1:20.500',1.08998138,-0.46005280,-0.20001282,28.50000916,0.38300409
'1:20.625',1.08998138,-0.46005280,-0.21003037,28.50000916,0.38300409
'1:20.750',1.08998138,-0.46005280,-0.21003037,28.50000916,0.38300409
'1:20.875',1.08998138,-0.46005280,-0.20001282,28.50000916,0.38203772
'1:21.000',1.08998138,-0.46005280,-0.20001282,28.50000916,0.38300409
'1:21.125',1.08998138,-0.46005280,-0.20001282,28.50000916,0.38300409
'1:21.250',1.08998138,-0.46005280,-0.21003037,28.50000916,0.38300409
'1:21.375',1.07998352,-0.46005280,-0.20001282,28.50000916,0.38300409
'1:21.500',1.08998138,-0.46005280,-0.20001282,28.50000916,0.38300409
'1:21.625',1.08998138,-0.46005280,-0.20001282,28.50000916,0.38300409
'1:21.750',1.07998352,-0.46005280,-0.20001282,28.50000916,0.38300409
'1:21.875',1.08998138,-0.46005280,-0.21003037,28.50000916,0.38300409
'1:22.000',1.08998138,-0.46005280,-0.21003037,28.50000916,0.38300409
'1:22.125',1.07998352,-0.46005280,-0.20001282,28.50000916,0.38300409
'1:22.250',1.07998352,-0.46005280,-0.21003037,28.50000916,0.38300409
'1:22.375',1.08998138,-0.46005280,-0.20001282,28.50000916,0.38300409
'1:22.500',1.08998138,-0.46005280,-0.20001282,28.50000916,0.38300409
'1:22.625',1.08998138,-0.46005280,-0.20001282,28.50000916,0.38300409
'1:22.750',1.07998352,-0.46005280,-0.20001282,28.50000916,0.38300409
'1:22.875',1.08998138,-0.46005280,-0.21003037,28.50000916,0.38300409
'1:23.000',1.07998352,-0.47005554,-0.21003037,28.50000916,0.38603204
'1:23.125',1.07998352,-0.46005280,-0.21003037,28.50000916,0.38300409
'1:23.250',1.07998352,-0.46005280,-0.21003037,28.50000916,0.38300409
'1:23.375',1.08998138,-0.47005554,-0.21003037,28.50000916,0.38300409
'1:23.500',1.07998352,-0.46005280,-0.21003037,28.50000916,0.38300409
'1:23.625',1.08998138,-0.47005554,-0.20001282,28.50000916,0.38300409
'1:23.750',1.07998352,-0.47005554,-0.20001282,28.50000916,0.38203772
'1:23.875',1.07998352,-0.46005280,-0.21003037,28.50000916,0.38603204
'1:24.000',1.08998138,-0.46005280,-0.20001282,28.50000916,0.38300409
'1:24.125',1.07998352,-0.46005280,-0.21003037,28.50000916,0.38300409
'1:24.250',1.08998138,-0.46005280,-0.21003037,28.50000916,0.38300409
'1:24.375',1.08998138,-0.46005280,-0.20001282,28.50000916,0.38300409
'1:24.500',1.08998138,-0.47005554,-0.20001282,28.50000916,0.38300409
'1:24.625',1.07998352,-0.47005554,-0.20001282,28.70007630,0.38300409
'1:24.750',1.08998138,-0.46005280,-0.20001282,28.50000916,0.38300409
'1:24.875',1.07998352,-0.46005280,-0.20001282,28.50000916,0.38300409
'1:25.000',1.08998138,-0.46005280,-0.21003037,28.70007630,0.38300409
'1:25.125',1.08998138,-0.46005280,-0.21003037,28.50000916,0.38300409
'1:25.250',1.08998138,-0.46005280,-0.21003037,28.70007630,0.38300409
'1:25.375',1.07998352,-0.46005280,-0.21003037,28.70007630,0.38300409
'1:25.500',1.07998352,-0.46005280,-0.21003037,28.50000916,0.38300409
'1:25.625',1.08998138,-0.46005280,-0.20001282,28.50000916,0.38300409
'1:25.750',1.08998138,-0.46005280,-0.20001282,28.70007630,0.38300409
'1:25.875',1.08998138,-0.46005280,-0.20001282,28.50000916,0.38203772
'1:26.000',1.07998352,-0.46005280,-0.21003037,28.70007630,0.38603204
'1:26.125',1.08998138,-0.46005280,-0.20001282,28.70007630,0.38300409
'1:26.250',1.08998138,-0.46005280,-0.21003037,28.50000916,0.38300409
'1:26.375',1.08998138,-0.46005280,-0.21003037,28.50000916,0.38300409
'1:26.500',1.08998138,-0.46005280,-0.21003037,28.50000916,0.38300409
'1:26.625',1.08998138,-0.46005280,-0.20001282,28.70007630,0.38300409
'1:26.750',1.08998138,-0.46005280,-0.21003037,28.70007630,0.38300409
'1:26.875',1.08998138,-0.46005280,-0.20001282,28.70007630,0.38300409
'1:27.000',1.08998138,-0.46005280,-0.21003037,28.70007630,0.38300409
'1:27.125',1.08998138,-0.46005280,-0.21003037,28.50000916,0.38300409
'1:27.250',1.08998138,-0.46005280,-0.20001282,28.70007630,0.38300409
'1:27.375',1.07998352,-0.46005280,-0.21003037,28.50000916,0.38203772
'1:27.500',1.08998138,-0.46005280,-0.21003037,28.70007630,0.38300409
'1:27.625',1.08998138,-0.46005280,-0.21003037,28.70007630,0.38300409
'1:27.750',1.07998352,-0.46005280,-0.20001282,28.70007630,0.38300409
'1:27.875',1.07998352,-0.46005280,-0.21003037,28.70007630,0.38300409
'1:28.000',1.08998138,-0.46005280,-0.20001282,28.50000916,0.38203772
'1:28.125',1.07998352,-0.46005280,-0.21003037,28.70007630,0.38300409
'1:28.250',1.08998138,-0.46005280,-0.20001282,28.70007630,0.38300409
'1:28.375',1.07998352,-0.46005280,-0.20001282,28.50000916,0.38300409
'1:28.500',1.08998138,-0.46005280,-0.21003037,28.70007630,0.38300409
'1:28.625',1.08998138,-0.46005280,-0.20001282,28.50000916,0.38300409
'1:28.750',1.08998138,-0.46005280,-0.21003037,28.70007630,0.38300409
'1:28.875',1.08998138,-0.46005280,-0.20001282,28.70007630,0.38300409
'1:29.000',1.07998352,-0.46005280,-0.21003037,28.50000916,0.38300409
'1:29.125',1.07998352,-0.47005554,-0.20001282,28.70007630,0.38300409
'1:29.250',1.07998352,-0.46005280,-0.20001282,28.70007630,0.38300409
'1:29.375',1.08998138,-0.46005280,-0.20001282,28.50000916,0.38300409
'1:29.500',1.08998138,-0.46005280,-0.21003037,28.50000916,0.38203772
'1:29.625',1.07998352,-0.46005280,-0.21003037,28.50000916,0.38300409
'1:29.750',1.07998352,-0.46005280,-0.21003037,28.70007630,0.38300409
'1:29.875',1.08998138,-0.46005280,-0.21003037,28.70007630,0.38300409
'1:30.000',1.08998138,-0.46005280,-0.20001282,28.70007630,0.38203772
'1:30.125',1.09997925,-0.47005554,-0.21003037,28.70007630,0.38300409
'1:30.250',1.08998138,-0.47005554,-0.20001282,28.50000916,0.38300409
'1:30.375',1.07998352,-0.46005280,-0.21003037,28.70007630,0.38300409
'1:30.500',1.08998138,-0.46005280,-0.21003037,28.70007630,0.38300409
'1:30.625',1.08998138,-0.46005280,-0.20001282,28.70007630,0.38300409
'1:30.750',1.07998352,-0.46005280,-0.21003037,28.70007630,0.38300409
'1:30.875',1.07998352,-0.46005280,-0.21003037,28.70007630,0.38300409
'1:31.000',1.07998352,-0.46005280,-0.21003037,28.70007630,0.38300409
'1:31.125',1.08998138,-0.46005280,-0.20001282,28.70007630,0.38300409
'1:31.250',1.08998138,-0.46005280,-0.21003037,28.50000916,0.38300409
'1:31.375',1.07998352,-0.47005554,-0.20001282,28.50000916,0.38300409
'1:31.500',1.07998352,-0.46005280,-0.21003037,28.70007630,0.38300409
'1:31.625',1.07998352,-0.46005280,-0.21003037,28.70007630,0.38300409
'1:31.750',1.08998138,-0.47005554,-0.21003037,28.70007630,0.38203772
'1:31.875',1.08998138,-0.46005280,-0.21003037,28.70007630,0.38300409
'1:32.000',1.07998352,-0.46005280,-0.21003037,28.70007630,0.38300409
'1:32.125',1.07998352,-0.46005280,-0.21003037,28.70007630,0.38300409
'1:32.250',1.08998138,-0.47005554,-0.21003037,28.70007630,0.38300409
'1:32.375',1.07998352,-0.46005280,-0.21003037,28.70007630,0.38300409
'1:32.500',1.07998352,-0.47005554,-0.21003037,28.70007630,0.38300409
'1:32.625',1.07998352,-0.46005280,-0.21003037,28.70007630,0.38300409
'1:32.750',1.08998138,-0.47005554,-0.21003037,28.70007630,0.38300409
'1:32.875',1.08998138,-0.46005280,-0.21003037,28.70007630,0.38300409
'1:33.000',1.08998138,-0.46005280,-0.21003037,28.70007630,0.38300409
'1:33.125',1.08998138,-0.47005554,-0.21003037,28.70007630,0.38300409
'1:33.250',1.07998352,-0.46005280,-0.21003037,28.70007630,0.38300409
'1:33.375',1.07998352,-0.46005280,-0.21003037,28.70007630,0.38300409
'1:33.500',1.07998352,-0.46005280,-0.20001282,28.70007630,0.38300409
'1:33.625',1.07998352,-0.46005280,-0.21003037,28.70007630,0.38300409
'1:33.750',1.08998138,-0.46005280,-0.21003037,28.70007630,0.38203772
'1:33.875',1.07998352,-0.46005280,-0.21003037,28.70007630,0.38300409
'1:34.000',1.08998138,-0.47005554,-0.21003037,28.70007630,0.38300409
'1:34.125',1.07998352,-0.46005280,-0.21003037,28.70007630,0.38300409
'1:34.250',1.08998138,-0.46005280,-0.20001282,28.70007630,0.38300409
'1:34.375',1.08998138,-0.46005280,-0.21003037,28.70007630,0.38300409
'1:34.500',1.08998138,-0.46005280,-0.21003037,28.70007630,0.38300409
'1:34.625',1.07998352,-0.46005280,-0.21003037,28.70007630,0.38300409
'1:34.750',1.07998352,-0.46005280,-0.20001282,28.70007630,0.38300409
'1:34.875',1.07998352,-0.46005280,-0.21003037,28.70007630,0.38300409
'1:35.000',1.07998352,-0.45005005,-0.21003037,28.70007630,0.38300409
'1:35.125',1.08998138,-0.46005280,-0.21003037,28.70007630,0.38300409
'1:35.250',1.07998352,-0.47005554,-0.21003037,28.70007630,0.38203772
'1:35.375',1.08998138,-0.46005280,-0.21003037,28.70007630,0.38300409
'1:35.500',1.08998138,-0.46005280,-0.21003037,28.70007630,0.38300409
'1:35.625',1.08998138,-0.46005280,-0.21003037,28.70007630,0.38300409
'1:35.750',1.07998352,-0.46005280,-0.21003037,28.70007630,0.38300409
'1:35.875',1.08998138,-0.47005554,-0.21003037,28.70007630,0.38203772
'1:36.000',1.08998138,-0.46005280,-0.21003037,28.70007630,0.38300409
'1:36.125',1.07998352,-0.46005280,-0.21003037,28.70007630,0.38300409
'1:36.250',1.08998138,-0.46005280,-0.21003037,28.70007630,0.38300409
'1:36.375',1.07998352,-0.46005280,-0.21003037,28.70007630,0.38300409
'1:36.500',1.08998138,-0.46005280,-0.21003037,28.70007630,0.38300409
'1:36.625',1.07998352,-0.46005280,-0.21003037,28.70007630,0.38300409
'1:36.750',1.08998138,-0.47005554,-0.21003037,28.70007630,0.38300409
'1:36.875',1.07998352,-0.46005280,-0.21003037,28.70007630,0.38203772
'1:37.000',1.07998352,-0.46005280,-0.21003037,28.70007630,0.38300409
'1:37.125',1.07998352,-0.46005280,-0.21003037,28.70007630,0.38300409
'1:37.250',1.08998138,-0.47005554,-0.20001282,28.70007630,0.38300409
'1:37.375',1.07998352,-0.47005554,-0.21003037,28.70007630,0.38300409
'1:37.500',1.07998352,-0.47005554,-0.21003037,28.70007630,0.38300409
'1:37.625',1.07998352,-0.46005280,-0.21003037,28.70007630,0.38300409
'1:37.750',1.07998352,-0.47005554,-0.21003037,28.70007630,0.38300409
'1:37.875',1.08998138,-0.46005280,-0.21003037,28.70007630,0.38300409
'1:38.000',1.07998352,-0.47005554,-0.21003037,28.70007630,0.38300409
'1:38.125',1.07998352,-0.46005280,-0.21003037,28.70007630,0.38300409
'1:38.250',1.07998352,-0.47005554,-0.21003037,28.70007630,0.38300409
'1:38.375',1.08998138,-0.47005554,-0.21003037,28.70007630,0.38300409
'1:38.500',1.08998138,-0.47005554,-0.21003037,28.70007630,0.38300409
'1:38.625',1.08998138,-0.46005280,-0.21003037,28.70007630,0.38300409
'1:38.750',1.07998352,-0.47005554,-0.21003037,28.70007630,0.38203772
'1:38.875',1.07998352,-0.47005554,-0.21003037,28.70007630,0.38203772
'1:39.000',1.07998352,-0.46005280,-0.21003037,28.70007630,0.38203772
'1:39.125',1.08998138,-0.46005280,-0.21003037,28.70007630,0.38203772
'1:39.250',1.08998138,-0.47005554,-0.21003037,28.70007630,0.38300409
'1:39.375',1.08998138,-0.46005280,-0.20001282,28.70007630,0.38300409
'1:39.500',1.07998352,-0.46005280,-0.21003037,28.70007630,0.38203772
'1:39.625',1.08998138,-0.46005280,-0.21003037,28.70007630,0.38300409
'1:39.750',1.08998138,-0.46005280,-0.21003037,28.70007630,0.38300409
'1:39.875',1.08998138,-0.46005280,-0.21003037,28.70007630,0.38300409
'1:40.000',1.07998352,-0.46005280,-0.21003037,28.70007630,0.38300409
'1:40.125',1.08998138,-0.46005280,-0.21003037,28.70007630,0.38300409
'1:40.250',1.07998352,-0.46005280,-0.21003037,28.70007630,0.38300409
'1:40.375',1.08998138,-0.46005280,-0.21003037,28.90006104,0.38300409
'1:40.500',1.07998352,-0.46005280,-0.21003037,28.70007630,0.38300409
'1:40.625',1.07998352,-0.46005280,-0.21003037,28.70007630,0.38300409
'1:40.750',1.08998138,-0.46005280,-0.21003037,28.70007630,0.38300409
'1:40.875',1.08998138,-0.46005280,-0.21003037,28.70007630,0.38300409
'1:41.000',1.08998138,-0.46005280,-0.21003037,28.70007630,0.38203772
'1:41.125',1.07998352,-0.46005280,-0.20001282,28.70007630,0.38300409
'1:41.250',1.08998138,-0.46005280,-0.21003037,28.70007630,0.38300409
'1:41.375',1.08998138,-0.46005280,-0.20001282,28.90006104,0.38300409
'1:41.500',1.08998138,-0.46005280,-0.21003037,28.70007630,0.38300409
'1:41.625',1.07998352,-0.46005280,-0.21003037,28.70007630,0.38300409
'1:41.750',1.07998352,-0.46005280,-0.21003037,28.70007630,0.38300409
'1:41.875',1.08998138,-0.46005280,-0.21003037,28.70007630,0.38300409
'1:42.000',1.08998138,-0.46005280,-0.20001282,28.70007630,0.38300409
'1:42.125',1.08998138,-0.46005280,-0.21003037,28.70007630,0.38300409
'1:42.250',1.07998352,-0.46005280,-0.20001282,28.70007630,0.38300409
'1:42.375',1.07998352,-0.46005280,-0.21003037,28.90006104,0.38300409
'1:42.500',1.08998138,-0.46005280,-0.21003037,28.70007630,0.38300409
'1:42.625',1.08998138,-0.47005554,-0.21003037,28.90006104,0.38300409
'1:42.750',1.07998352,-0.47005554,-0.21003037,28.70007630,0.38300409
'1:42.875',1.07998352,-0.46005280,-0.21003037,28.70007630,0.38004056
'1:43.000',1.08998138,-0.47005554,-0.21003037,28.70007630,0.38300409
'1:43.125',1.07998352,-0.46005280,-0.21003037,28.90006104,0.38300409
'1:43.250',1.08998138,-0.46005280,-0.21003037,28.90006104,0.38300409
'1:43.375',1.07998352,-0.47005554,-0.21003037,28.90006104,0.38300409
'1:43.500',1.07998352,-0.47005554,-0.20001282,28.70007630,0.38300409
'1:43.625',1.07998352,-0.47005554,-0.21003037,28.70007630,0.38300409
'1:43.750',1.07998352,-0.47005554,-0.21003037,28.70007630,0.38300409
'1:43.875',1.07998352,-0.47005554,-0.21003037,28.70007630,0.38004056
'1:44.000',1.08998138,-0.46005280,-0.21003037,28.90006104,0.38004056
'1:44.125',1.08998138,-0.47005554,-0.20001282,28.70007630,0.38004056
'1:44.250',1.08998138,-0.46005280,-0.21003037,28.70007630,0.38300409
'1:44.375',1.08998138,-0.46005280,-0.21003037,28.70007630,0.38300409
'1:44.500',1.07998352,-0.46005280,-0.20001282,28.90006104,0.38300409
'1:44.625',1.08998138,-0.46005280,-0.21003037,28.70007630,0.38300409
'1:44.750',1.08998138,-0.46005280,-0.20001282,28.70007630,0.38300409
'1:44.875',1.07998352,-0.47005554,-0.21003037,28.70007630,0.38300409
'1:45.000',1.08998138,-0.46005280,-0.21003037,28.70007630,0.38300409
'1:45.125',1.08998138,-0.46005280,-0.21003037,28.70007630,0.38004056
'1:45.250',1.07998352,-0.46005280,-0.21003037,28.70007630,0.38004056
'1:45.375',1.07998352,-0.46005280,-0.21003037,28.90006104,0.38300409
'1:45.500',1.07998352,-0.46005280,-0.20001282,28.90006104,0.38300409
'1:45.625',1.07998352,-0.46005280,-0.21003037,28.70007630,0.38004056
'1:45.750',1.08998138,-0.46005280,-0.21003037,28.70007630,0.38300409
'1:45.875',1.08998138,-0.46005280,-0.21003037,28.90006104,0.38004056
'1:46.000',1.07998352,-0.46005280,-0.20001282,28.70007630,0.37900977
'1:46.125',1.08998138,-0.46005280,-0.21003037,28.70007630,0.38300409
'1:46.250',1.07998352,-0.46005280,-0.20001282,28.90006104,0.38004056
'1:46.375',1.07998352,-0.46005280,-0.21003037,28.70007630,0.38100693
'1:46.500',1.07998352,-0.46005280,-0.21003037,28.90006104,0.38004056
'1:46.625',1.07998352,-0.46005280,-0.21003037,28.90006104,0.38004056
'1:46.750',1.08998138,-0.46005280,-0.21003037,28.90006104,0.38300409
'1:46.875',1.08998138,-0.46005280,-0.21003037,28.90006104,0.38004056
'1:47.000',1.07998352,-0.46005280,-0.21003037,28.90006104,0.38004056
'1:47.125',1.07998352,-0.46005280,-0.21003037,28.90006104,0.38004056
'1:47.250',1.07998352,-0.46005280,-0.21003037,28.90006104,0.38004056
'1:47.375',1.07998352,-0.46005280,-0.21003037,28.90006104,0.38300409
'1:47.500',1.08998138,-0.47005554,-0.21003037,28.90006104,0.38300409
'1:47.625',1.07998352,-0.46005280,-0.21003037,28.90006104,0.38300409
'1:47.750',1.08998138,-0.46005280,-0.21003037,28.70007630,0.38300409
'1:47.875',1.08998138,-0.46005280,-0.21003037,28.90006104,0.38300409
'1:48.000',1.08998138,-0.47005554,-0.21003037,28.90006104,0.38004056
'1:48.125',1.07998352,-0.46005280,-0.21003037,28.90006104,0.38004056
'1:48.250',1.07998352,-0.46005280,-0.21003037,28.90006104,0.37900977
'1:48.375',1.07998352,-0.47005554,-0.21003037,28.90006104,0.38004056
'1:48.500',1.08998138,-0.46005280,-0.21003037,28.90006104,0.37701260
'1:48.625',1.08998138,-0.46005280,-0.21003037,28.90006104,0.37701260
'1:48.750',1.08998138,-0.46005280,-0.21003037,28.90006104,0.38004056
'1:48.875',1.07998352,-0.46005280,-0.21003037,28.90006104,0.38004056
'1:49.000',1.08998138,-0.46005280,-0.21003037,28.90006104,0.38004056
'1:49.125',1.08998138,-0.46005280,-0.21003037,28.90006104,0.38004056
'1:49.250',1.08998138,-0.46005280,-0.21003037,28.90006104,0.38004056
'1:49.375',1.08998138,-0.46005280,-0.21003037,28.90006104,0.38100693
'1:49.500',1.08998138,-0.46005280,-0.21003037,28.90006104,0.38004056
'1:49.625',1.07998352,-0.46005280,-0.21003037,28.90006104,0.38300409
'1:49.750',1.08998138,-0.46005280,-0.21003037,28.90006104,0.37701260
'1:49.875',1.08998138,-0.46005280,-0.21003037,28.90006104,0.38004056
'1:50.000',1.08998138,-0.46005280,-0.21003037,28.90006104,0.37701260
'1:50.125',1.08998138,-0.46005280,-0.21003037,28.90006104,0.38004056
'1:50.250',1.08998138,-0.46005280,-0.21003037,28.90006104,0.38300409
'1:50.375',1.08998138,-0.46005280,-0.21003037,28.90006104,0.38004056
'1:50.500',1.08998138,-0.46005280,-0.20001282,28.90006104,0.38004056
'1:50.625',1.08998138,-0.46005280,-0.21003037,28.90006104,0.38004056
'1:50.750',1.08998138,-0.46005280,-0.21003037,28.90006104,0.38004056
'1:50.875',1.08998138,-0.46005280,-0.21003037,28.90006104,0.38004056
'1:51.000',1.08998138,-0.45005005,-0.21003037,28.90006104,0.38004056
'1:51.125',1.08998138,-0.46005280,-0.21003037,28.90006104,0.37701260
'1:51.250',1.08998138,-0.46005280,-0.21003037,28.90006104,0.37701260
'1:51.375',1.08998138,-0.46005280,-0.21003037,28.90006104,0.37701260
'1:51.500',1.08998138,-0.46005280,-0.21003037,28.90006104,0.38004056
'1:51.625',1.08998138,-0.46005280,-0.21003037,28.90006104,0.37701260
'1:51.750',1.07998352,-0.46005280,-0.21003037,28.90006104,0.37701260
'1:51.875',1.08998138,-0.46005280,-0.21003037,28.90006104,0.37701260
'1:52.000',1.09997925,-0.46005280,-0.21003037,28.90006104,0.38004056
'1:52.125',1.07998352,-0.46005280,-0.20001282,28.90006104,0.37701260
'1:52.250',1.07998352,-0.47005554,-0.21003037,28.90006104,0.38004056
'1:52.375',1.07998352,-0.47005554,-0.21003037,28.90006104,0.37701260
'1:52.500',1.07998352,-0.47005554,-0.21003037,28.90006104,0.37701260
'1:52.625',1.07998352,-0.46005280,-0.21003037,28.90006104,0.37701260
'1:52.750',1.07998352,-0.46005280,-0.21003037,28.90006104,0.38004056
'1:52.875',1.07998352,-0.46005280,-0.21003037,28.90006104,0.37701260
'1:53.000',1.08998138,-0.46005280,-0.21003037,28.90006104,0.37701260
'1:53.125',1.07998352,-0.46005280,-0.21003037,28.90006104,0.38004056
'1:53.250',1.07998352,-0.46005280,-0.21003037,28.90006104,0.37701260
'1:53.375',1.07998352,-0.46005280,-0.21003037,28.90006104,0.37701260
'1:53.500',1.08998138,-0.46005280,-0.21003037,28.90006104,0.38004056
'1:53.625',1.08998138,-0.46005280,-0.21003037,28.90006104,0.37701260
'1:53.750',1.07998352,-0.46005280,-0.21003037,28.90006104,0.37701260
'1:53.875',1.07998352,-0.46005280,-0.20001282,28.90006104,0.37701260
'1:54.000',1.08998138,-0.47005554,-0.20001282,28.90006104,0.37701260
'1:54.125',1.08998138,-0.46005280,-0.21003037,28.90006104,0.37701260
'1:54.250',1.08998138,-0.46005280,-0.21003037,28.90006104,0.37701260
'1:54.375',1.08998138,-0.47005554,-0.21003037,28.90006104,0.37701260
'1:54.500',1.07998352,-0.46005280,-0.21003037,28.90006104,0.37604624
'1:54.625',1.08998138,-0.46005280,-0.21003037,28.90006104,0.37701260
'1:54.750',1.07998352,-0.46005280,-0.21003037,28.90006104,0.37701260
'1:54.875',1.07998352,-0.46005280,-0.21003037,28.90006104,0.37701260
'1:55.000',1.07998352,-0.46005280,-0.21003037,28.90006104,0.37701260
'1:55.125',1.08998138,-0.46005280,-0.21003037,28.90006104,0.37701260
'1:55.250',1.08998138,-0.46005280,-0.21003037,28.90006104,0.37701260
'1:55.375',1.08998138,-0.46005280,-0.21003037,28.90006104,0.37701260
'1:55.500',1.07998352,-0.46005280,-0.21003037,28.90006104,0.37701260
'1:55.625',1.07998352,-0.46005280,-0.21003037,28.90006104,0.37701260
'1:55.750',1.08998138,-0.46005280,-0.21003037,28.90006104,0.37701260
'1:55.875',1.08998138,-0.46005280,-0.21003037,28.90006104,0.37701260
'1:56.000',1.08998138,-0.46005280,-0.21003037,28.90006104,0.37701260
'1:56.125',1.08998138,-0.46005280,-0.21003037,28.90006104,0.37701260
'1:56.250',1.08998138,-0.46005280,-0.21003037,28.90006104,0.37701260
'1:56.375',1.07998352,-0.46005280,-0.21003037,28.90006104,0.37701260
'1:56.500',1.07998352,-0.46005280,-0.21003037,28.90006104,0.37701260
'1:56.625',1.07998352,-0.46005280,-0.21003037,28.90006104,0.37701260
'1:56.750',1.08998138,-0.46005280,-0.21003037,28.90006104,0.37701260
'1:56.875',1.07998352,-0.46005280,-0.21003037,28.90006104,0.37701260
'1:57.000',1.07998352,-0.46005280,-0.21003037,28.90006104,0.37701260
'1:57.125',1.07998352,-0.46005280,-0.21003037,28.90006104,0.37701260
'1:57.250',1.07998352,-0.46005280,-0.21003037,28.90006104,0.37701260
'1:57.375',1.07998352,-0.46005280,-0.21003037,28.90006104,0.37701260
'1:57.500',1.07998352,-0.46005280,-0.21003037,28.90006104,0.37701260
'1:57.625',1.08998138,-0.46005280,-0.21003037,28.90006104,0.37701260
'1:57.750',1.07998352,-0.46005280,-0.21003037,28.90006104,0.37701260
'1:57.875',1.08998138,-0.47005554,-0.21003037,28.90006104,0.37701260
'1:58.000',1.08998138,-0.46005280,-0.21003037,28.90006104,0.37701260
'1:58.125',1.08998138,-0.46005280,-0.21003037,29.10004578,0.37701260
'1:58.250',1.07998352,-0.47005554,-0.21003037,28.90006104,0.37701260
'1:58.375',1.08998138,-0.46005280,-0.21003037,28.90006104,0.37604624
'1:58.500',1.08998138,-0.46005280,-0.20001282,29.10004578,0.37701260
'1:58.625',1.07998352,-0.46005280,-0.21003037,28.90006104,0.37701260
'1:58.750',1.08998138,-0.46005280,-0.21003037,28.90006104,0.37701260
'1:58.875',1.08998138,-0.47005554,-0.20001282,28.90006104,0.37701260
'1:59.000',1.07998352,-0.46005280,-0.21003037,28.90006104,0.37701260
'1:59.125',1.07998352,-0.46005280,-0.20001282,28.90006104,0.37701260
'1:59.250',1.08998138,-0.46005280,-0.21003037,28.90006104,0.37701260
'1:59.375',1.08998138,-0.46005280,-0.21003037,28.90006104,0.37404907
'1:59.500',1.08998138,-0.46005280,-0.21003037,28.90006104,0.37701260
'1:59.625',1.07998352,-0.46005280,-0.21003037,28.90006104,0.37701260
'1:59.750',1.08998138,-0.47005554,-0.21003037,28.90006104,0.37701260
'1:59.875',1.07998352,-0.46005280,-0.21003037,28.90006104,0.37701260
'2:00.000',1.08998138,-0.46005280,-0.21003037,29.10004578,0.37701260
'2:00.125',1.07998352,-0.46005280,-0.21003037,29.10004578,0.37404907
'2:00.250',1.08998138,-0.46005280,-0.21003037,29.10004578,0.37701260
'2:00.375',1.07998352,-0.46005280,-0.21003037,29.10004578,0.37404907
'2:00.500',1.08998138,-0.47005554,-0.21003037,28.90006104,0.37701260
'2:00.625',1.08998138,-0.46005280,-0.21003037,28.90006104,0.37404907
'2:00.750',1.08998138,-0.46005280,-0.21003037,29.10004578,0.37701260
'2:00.875',1.08998138,-0.46005280,-0.21003037,28.90006104,0.37404907
'2:01.000',1.08998138,-0.46005280,-0.20001282,28.90006104,0.37701260
'2:01.125',1.07998352,-0.46005280,-0.21003037,28.90006104,0.37404907
'2:01.250',1.08998138,-0.46005280,-0.20001282,29.10004578,0.37102112
'2:01.375',1.07998352,-0.46005280,-0.20001282,29.10004578,0.37404907
'2:01.500',1.08998138,-0.45005005,-0.20001282,28.90006104,0.37404907
'2:01.625',1.08998138,-0.46005280,-0.20001282,28.90006104,0.37404907
'2:01.750',1.08998138,-0.46005280,-0.21003037,29.10004578,0.37404907
'2:01.875',1.07998352,-0.46005280,-0.21003037,29.10004578,0.37102112
'2:02.000',1.08998138,-0.46005280,-0.21003037,28.90006104,0.37102112
'2:02.125',1.07998352,-0.46005280,-0.21003037,29.10004578,0.37102112
'2:02.250',1.08998138,-0.46005280,-0.21003037,28.90006104,0.37102112
'2:02.375',1.08998138,-0.47005554,-0.21003037,28.90006104,0.37102112
'2:02.500',1.07998352,-0.47005554,-0.21003037,29.10004578,0.37102112
'2:02.625',1.07998352,-0.46005280,-0.21003037,29.10004578,0.37102112
'2:02.750',1.07998352,-0.46005280,-0.21003037,28.90006104,0.37102112
'2:02.875',1.07998352,-0.46005280,-0.21003037,29.10004578,0.37102112
'2:03.000',1.08998138,-0.46005280,-0.21003037,28.90006104,0.37102112
'2:03.125',1.08998138,-0.46005280,-0.21003037,28.90006104,0.37102112
'2:03.250',1.07998352,-0.47005554,-0.21003037,29.10004578,0.37102112
'2:03.375',1.08998138,-0.46005280,-0.21003037,29.10004578,0.37102112
'2:03.500',1.07998352,-0.46005280,-0.21003037,28.90006104,0.37102112
'2:03.625',1.08998138,-0.46005280,-0.20001282,28.90006104,0.37102112
'2:03.750',1.07998352,-0.46005280,-0.21003037,29.10004578,0.37102112
'2:03.875',1.08998138,-0.46005280,-0.21003037,29.10004578,0.37102112
'2:04.000',1.07998352,-0.46005280,-0.21003037,29.10004578,0.37102112
'2:04.125',1.07998352,-0.46005280,-0.21003037,29.10004578,0.37102112
'2:04.250',1.08998138,-0.46005280,-0.21003037,29.10004578,0.37102112
'2:04.375',1.08998138,-0.46005280,-0.21003037,28.90006104,0.37102112
'2:04.500',1.07998352,-0.46005280,-0.21003037,29.10004578,0.37102112
'2:04.625',1.07998352,-0.46005280,-0.21003037,29.10004578,0.37102112
'2:04.750',1.07998352,-0.46005280,-0.21003037,29.10004578,0.37102112
'2:04.875',1.08998138,-0.46005280,-0.21003037,28.90006104,0.37102112
'2:05.000',1.08998138,-0.46005280,-0.21003037,29.10004578,0.37102112
'2:05.125',1.07998352,-0.46005280,-0.21003037,29.10004578,0.37102112
'2:05.250',1.08998138,-0.46005280,-0.21003037,29.10004578,0.37102112
'2:05.375',1.08998138,-0.46005280,-0.21003037,29.10004578,0.37102112
'2:05.500',1.07998352,-0.46005280,-0.21003037,29.10004578,0.37102112
'2:05.625',1.07998352,-0.46005280,-0.21003037,29.10004578,0.37102112
'2:05.750',1.07998352,-0.46005280,-0.21003037,29.10004578,0.37102112
'2:05.875',1.07998352,-0.46005280,-0.21003037,28.90006104,0.37102112
'2:06.000',1.07998352,-0.46005280,-0.20001282,29.10004578,0.37102112
'2:06.125',1.07998352,-0.46005280,-0.21003037,29.10004578,0.37102112
'2:06.250',1.08998138,-0.46005280,-0.21003037,29.10004578,0.37102112
'2:06.375',1.08998138,-0.46005280,-0.21003037,29.10004578,0.37102112
'2:06.500',1.08998138,-0.46005280,-0.21003037,29.10004578,0.37102112
'2:06.625',1.07998352,-0.46005280,-0.21003037,29.10004578,0.37102112
'2:06.750',1.07998352,-0.46005280,-0.21003037,29.10004578,0.37102112
'2:06.875',1.07998352,-0.46005280,-0.21003037,29.10004578,0.37102112
'2:07.000',1.07998352,-0.46005280,-0.21003037,29.10004578,0.37102112
'2:07.125',1.07998352,-0.46005280,-0.21003037,29.10004578,0.37102112
'2:07.250',1.08998138,-0.46005280,-0.21003037,29.10004578,0.37102112
'2:07.375',1.07998352,-0.46005280,-0.21003037,29.10004578,0.37102112
'2:07.500',1.07998352,-0.46005280,-0.21003037,29.10004578,0.37102112
'2:07.625',1.08998138,-0.47005554,-0.21003037,29.10004578,0.37102112
'2:07.750',1.08998138,-0.46005280,-0.21003037,29.10004578,0.37102112
'2:07.875',1.07998352,-0.46005280,-0.20001282,29.10004578,0.37102112
'2:08.000',1.07998352,-0.46005280,-0.21003037,29.10004578,0.37102112
'2:08.125',1.07998352,-0.46005280,-0.21003037,29.10004578,0.37102112
'2:08.250',1.07998352,-0.46005280,-0.21003037,29.10004578,0.37102112
'2:08.375',1.08998138,-0.46005280,-0.20001282,29.10004578,0.37102112
'2:08.500',1.07998352,-0.46005280,-0.20001282,29.10004578,0.37102112
'2:08.625',1.08998138,-0.46005280,-0.21003037,29.10004578,0.37102112
'2:08.750',1.08998138,-0.46005280,-0.21003037,29.10004578,0.37102112
'2:08.875',1.08998138,-0.46005280,-0.21003037,29.10004578,0.37102112
'2:09.000',1.07998352,-0.46005280,-0.20001282,29.10004578,0.37102112
'2:09.125',1.08998138,-0.46005280,-0.21003037,29.10004578,0.37102112
'2:09.250',1.08998138,-0.46005280,-0.21003037,29.10004578,0.37102112
'2:09.375',1.08998138,-0.46005280,-0.21003037,29.10004578,0.37102112
'2:09.500',1.07998352,-0.46005280,-0.21003037,29.30003052,0.37102112
'2:09.625',1.08998138,-0.46005280,-0.21003037,29.30003052,0.37102112
'2:09.750',1.08998138,-0.46005280,-0.21003037,29.30003052,0.37205191
'2:09.875',1.09997925,-0.45005005,-0.22000565,29.30003052,0.36805759
'2:10.000',1.07998352,-0.46005280,-0.21003037,29.10004578,0.37102112
'2:10.125',1.08998138,-0.46005280,-0.21003037,29.10004578,0.36805759
'2:10.250',1.07998352,-0.46005280,-0.21003037,29.10004578,0.37102112
'2:10.375',1.07998352,-0.46005280,-0.21003037,29.10004578,0.37102112
'2:10.500',1.08998138,-0.46005280,-0.21003037,29.10004578,0.37102112
'2:10.625',1.08998138,-0.46005280,-0.21003037,29.10004578,0.37102112
'2:10.750',1.08998138,-0.46005280,-0.21003037,29.10004578,0.37102112
'2:10.875',1.07998352,-0.46005280,-0.21003037,29.10004578,0.36805759
'2:11.000',1.08998138,-0.46005280,-0.21003037,29.10004578,0.37102112
'2:11.125',1.08998138,-0.47005554,-0.21003037,29.10004578,0.36902396
'2:11.250',1.07998352,-0.46005280,-0.21003037,29.10004578,0.36805759
'2:11.375',1.07998352,-0.46005280,-0.21003037,29.10004578,0.36902396
'2:11.500',1.08998138,-0.46005280,-0.21003037,29.10004578,0.36902396
'2:11.625',1.07998352,-0.46005280,-0.21003037,29.10004578,0.36902396
'2:11.750',1.06998566,-0.46005280,-0.20001282,29.10004578,0.36902396
'2:11.875',1.07998352,-0.46005280,-0.21003037,29.10004578,0.36606043
'2:12.000',1.08998138,-0.46005280,-0.21003037,29.10004578,0.36902396
'2:12.125',1.07998352,-0.46005280,-0.21003037,29.10004578,0.36902396
'2:12.250',1.08998138,-0.46005280,-0.21003037,29.10004578,0.36805759
'2:12.375',1.08998138,-0.46005280,-0.21003037,29.10004578,0.36902396
'2:12.500',1.08998138,-0.46005280,-0.21003037,29.10004578,0.36606043
'2:12.625',1.07998352,-0.46005280,-0.21003037,29.10004578,0.36606043
'2:12.750',1.07998352,-0.46005280,-0.21003037,29.10004578,0.36606043
'2:12.875',1.07998352,-0.46005280,-0.21003037,29.10004578,0.37102112
'2:13.000',1.08998138,-0.46005280,-0.21003037,29.10004578,0.36805759
'2:13.125',1.08998138,-0.46005280,-0.21003037,29.10004578,0.36902396
'2:13.250',1.07998352,-0.47005554,-0.21003037,29.10004578,0.36606043
'2:13.375',1.07998352,-0.46005280,-0.21003037,29.10004578,0.36606043
'2:13.500',1.07998352,-0.46005280,-0.20001282,29.10004578,0.36606043
'2:13.625',1.08998138,-0.46005280,-0.20001282,29.10004578,0.36606043
'2:13.750',1.08998138,-0.46005280,-0.21003037,29.10004578,0.36606043
'2:13.875',1.08998138,-0.46005280,-0.20001282,29.10004578,0.36902396
'2:14.000',1.07998352,-0.46005280,-0.21003037,29.10004578,0.36606043
'2:14.125',1.08998138,-0.46005280,-0.21003037,29.10004578,0.36902396
'2:14.250',1.08998138,-0.46005280,-0.20001282,29.10004578,0.36606043
'2:14.375',1.08998138,-0.46005280,-0.21003037,29.10004578,0.36606043
'2:14.500',1.08998138,-0.46005280,-0.21003037,29.10004578,0.36606043
'2:14.625',1.08998138,-0.46005280,-0.21003037,29.10004578,0.36606043
'2:14.750',1.08998138,-0.46005280,-0.21003037,29.10004578,0.36606043
'2:14.875',1.07998352,-0.45005005,-0.21003037,29.10004578,0.36606043
'2:15.000',1.08998138,-0.46005280,-0.21003037,29.10004578,0.36606043
'2:15.125',1.07998352,-0.46005280,-0.21003037,29.10004578,0.36606043
'2:15.250',1.08998138,-0.46005280,-0.21003037,29.10004578,0.36606043
'2:15.375',1.08998138,-0.46005280,-0.20001282,29.10004578,0.36606043
'2:15.500',1.08998138,-0.46005280,-0.21003037,29.10004578,0.36606043
'2:15.625',1.08998138,-0.46005280,-0.21003037,29.10004578,0.36606043
'2:15.750',1.08998138,-0.46005280,-0.21003037,29.10004578,0.36606043
'2:15.875',1.07998352,-0.47005554,-0.21003037,29.10004578,0.36606043
'2:16.000',1.07998352,-0.46005280,-0.21003037,29.10004578,0.36902396
'2:16.125',1.07998352,-0.46005280,-0.21003037,29.10004578,0.36606043
'2:16.250',1.07998352,-0.47005554,-0.21003037,29.10004578,0.36606043
'2:16.375',1.07998352,-0.46005280,-0.21003037,29.10004578,0.36606043
'2:16.500',1.08998138,-0.46005280,-0.21003037,29.10004578,0.36606043
'2:16.625',1.08998138,-0.46005280,-0.21003037,29.10004578,0.36606043
'2:16.750',1.08998138,-0.46005280,-0.21003037,29.10004578,0.36606043
'2:16.875',1.07998352,-0.46005280,-0.21003037,29.10004578,0.36606043
'2:17.000',1.07998352,-0.46005280,-0.21003037,29.10004578,0.36606043
'2:17.125',1.08998138,-0.46005280,-0.21003037,29.10004578,0.36606043
'2:17.250',1.08998138,-0.46005280,-0.21003037,29.10004578,0.36606043
'2:17.375',1.07998352,-0.46005280,-0.21003037,29.30003052,0.36606043
'2:17.500',1.08998138,-0.46005280,-0.21003037,29.10004578,0.36606043
'2:17.625',1.08998138,-0.46005280,-0.21003037,29.10004578,0.36606043
'2:17.750',1.08998138,-0.46005280,-0.21003037,29.10004578,0.36606043
'2:17.875',1.08998138,-0.47005554,-0.20001282,29.10004578,0.36606043
'2:18.000',1.08998138,-0.46005280,-0.21003037,29.10004578,0.36606043
'2:18.125',1.07998352,-0.46005280,-0.21003037,29.10004578,0.36606043
'2:18.250',1.08998138,-0.45005005,-0.21003037,29.10004578,0.36606043
'2:18.375',1.08998138,-0.46005280,-0.21003037,29.30003052,0.36606043
'2:18.500',1.07998352,-0.46005280,-0.21003037,29.10004578,0.36606043
'2:18.625',1.08998138,-0.46005280,-0.21003037,29.10004578,0.36606043
'2:18.750',1.08998138,-0.46005280,-0.20001282,29.10004578,0.36606043
'2:18.875',1.07998352,-0.46005280,-0.21003037,29.10004578,0.36606043
'2:19.000',1.07998352,-0.46005280,-0.21003037,29.10004578,0.36606043
'2:19.125',1.08998138,-0.46005280,-0.21003037,29.10004578,0.36606043
'2:19.250',1.07998352,-0.46005280,-0.21003037,29.10004578,0.36606043
'2:19.375',1.08998138,-0.45005005,-0.21003037,29.10004578,0.36606043
'2:19.500',1.08998138,-0.46005280,-0.21003037,29.30003052,0.36606043
'2:19.625',1.07998352,-0.46005280,-0.21003037,29.10004578,0.36606043
'2:19.750',1.08998138,-0.46005280,-0.21003037,29.10004578,0.36606043
'2:19.875',1.08998138,-0.46005280,-0.21003037,29.30003052,0.36606043
'2:20.000',1.07998352,-0.46005280,-0.21003037,29.10004578,0.36606043
'2:20.125',1.07998352,-0.46005280,-0.20001282,29.10004578,0.36606043
'2:20.250',1.08998138,-0.46005280,-0.21003037,29.30003052,0.36606043
'2:20.375',1.08998138,-0.46005280,-0.21003037,29.10004578,0.36606043
'2:20.500',1.07998352,-0.46005280,-0.21003037,29.10004578,0.36606043
'2:20.625',1.07998352,-0.46005280,-0.21003037,29.10004578,0.36606043
'2:20.750',1.07998352,-0.46005280,-0.21003037,29.10004578,0.36606043
'2:20.875',1.07998352,-0.47005554,-0.21003037,29.10004578,0.36606043
'2:21.000',1.07998352,-0.46005280,-0.21003037,29.10004578,0.36606043
'2:21.125',1.07998352,-0.46005280,-0.21003037,29.10004578,0.36606043
'2:21.250',1.07998352,-0.47005554,-0.21003037,29.10004578,0.36606043
'2:21.375',1.08998138,-0.46005280,-0.21003037,29.10004578,0.36606043
'2:21.500',1.07998352,-0.47005554,-0.21003037,29.10004578,0.36606043
'2:21.625',1.07998352,-0.46005280,-0.21003037,29.10004578,0.36606043
'2:21.750',1.07998352,-0.46005280,-0.21003037,29.30003052,0.36606043
'2:21.875',1.07998352,-0.46005280,-0.21003037,29.10004578,0.36606043
'2:22.000',1.07998352,-0.46005280,-0.21003037,29.30003052,0.36606043
'2:22.125',1.07998352,-0.46005280,-0.21003037,29.10004578,0.36606043
'2:22.250',1.08998138,-0.46005280,-0.21003037,29.30003052,0.36606043
'2:22.375',1.07998352,-0.47005554,-0.20001282,29.10004578,0.36606043
'2:22.500',1.07998352,-0.46005280,-0.21003037,29.30003052,0.36606043
'2:22.625',1.07998352,-0.46005280,-0.21003037,29.10004578,0.36606043
'2:22.750',1.07998352,-0.46005280,-0.21003037,29.30003052,0.36606043
'2:22.875',1.07998352,-0.46005280,-0.21003037,29.30003052,0.36606043
'2:23.000',1.07998352,-0.47005554,-0.21003037,29.30003052,0.36606043
'2:23.125',1.08998138,-0.46005280,-0.21003037,29.30003052,0.36606043
'2:23.250',1.08998138,-0.46005280,-0.21003037,29.30003052,0.36606043
'2:23.375',1.07998352,-0.46005280,-0.21003037,29.30003052,0.36606043
'2:23.500',1.07998352,-0.46005280,-0.21003037,29.30003052,0.36606043
'2:23.625',1.08998138,-0.46005280,-0.21003037,29.30003052,0.36200168
'2:23.750',1.08998138,-0.46005280,-0.20001282,29.10004578,0.36606043
'2:23.875',1.08998138,-0.46005280,-0.21003037,29.30003052,0.36606043
'2:24.000',1.07998352,-0.46005280,-0.20001282,29.30003052,0.36606043
'2:24.125',1.08998138,-0.46005280,-0.21003037,29.30003052,0.36200168
'2:24.250',1.07998352,-0.46005280,-0.21003037,29.30003052,0.36606043
'2:24.375',1.07998352,-0.46005280,-0.21003037,29.10004578,0.36606043
'2:24.500',1.08998138,-0.46005280,-0.20001282,29.30003052,0.36606043
'2:24.625',1.08998138,-0.46005280,-0.21003037,29.30003052,0.36606043
'2:24.750',1.08998138,-0.45005005,-0.21003037,29.30003052,0.36200168
'2:24.875',1.08998138,-0.45005005,-0.21003037,29.30003052,0.36200168
'2:25.000',1.07998352,-0.46005280,-0.21003037,29.30003052,0.36606043
'2:25.125',1.07998352,-0.46005280,-0.21003037,29.10004578,0.36200168
'2:25.250',1.08998138,-0.46005280,-0.21003037,29.30003052,0.36606043
'2:25.375',1.08998138,-0.46005280,-0.21003037,29.30003052,0.36606043
'2:25.500',1.07998352,-0.46005280,-0.21003037,29.30003052,0.36200168
'2:25.625',1.08998138,-0.46005280,-0.21003037,29.30003052,0.36200168
'2:25.750',1.08998138,-0.46005280,-0.21003037,29.30003052,0.36606043
'2:25.875',1.07998352,-0.46005280,-0.21003037,29.10004578,0.36200168
'2:26.000',1.08998138,-0.46005280,-0.20001282,29.30003052,0.36606043
'2:26.125',1.07998352,-0.46005280,-0.20001282,29.30003052,0.36200168
'2:26.250',1.08998138,-0.46005280,-0.21003037,29.30003052,0.36606043
'2:26.375',1.08998138,-0.46005280,-0.20001282,29.30003052,0.36606043
'2:26.500',1.08998138,-0.45005005,-0.21003037,29.30003052,0.36606043
'2:26.625',1.08998138,-0.47005554,-0.21003037,29.10004578,0.36606043
'2:26.750',1.07998352,-0.46005280,-0.21003037,29.30003052,0.36606043
'2:26.875',1.08998138,-0.45005005,-0.21003037,29.30003052,0.36200168
'2:27.000',1.07998352,-0.46005280,-0.20001282,29.10004578,0.36200168
'2:27.125',1.08998138,-0.46005280,-0.21003037,29.30003052,0.36200168
'2:27.250',1.08998138,-0.46005280,-0.20001282,29.30003052,0.36200168
'2:27.375',1.07998352,-0.46005280,-0.21003037,29.30003052,0.36200168
'2:27.500',1.07998352,-0.46005280,-0.21003037,29.30003052,0.36200168
'2:27.625',1.08998138,-0.45005005,-0.21003037,29.30003052,0.36200168
'2:27.750',1.07998352,-0.46005280,-0.21003037,29.30003052,0.36200168
'2:27.875',1.07998352,-0.46005280,-0.21003037,29.30003052,0.36200168
'2:28.000',1.07998352,-0.46005280,-0.21003037,29.30003052,0.36200168
'2:28.125',1.07998352,-0.46005280,-0.21003037,29.30003052,0.36200168
'2:28.250',1.07998352,-0.46005280,-0.21003037,29.30003052,0.36200168
'2:28.375',1.07998352,-0.46005280,-0.21003037,29.30003052,0.36200168
'2:28.500',1.07998352,-0.46005280,-0.21003037,29.30003052,0.36200168
'2:28.625',1.07998352,-0.46005280,-0.21003037,29.30003052,0.36200168
'2:28.750',1.07998352,-0.46005280,-0.21003037,29.30003052,0.36200168
'2:28.875',1.07998352,-0.46005280,-0.21003037,29.30003052,0.36200168
'2:29.000',1.08998138,-0.46005280,-0.21003037,29.30003052,0.36200168
'2:29.125',1.08998138,-0.46005280,-0.21003037,29.30003052,0.36200168
'2:29.250',1.08998138,-0.46005280,-0.21003037,29.30003052,0.36200168
'2:29.375',1.08998138,-0.46005280,-0.21003037,29.30003052,0.36200168
'2:29.500',1.08998138,-0.46005280,-0.21003037,29.30003052,0.36606043
'2:29.625',1.08998138,-0.46005280,-0.20001282,29.30003052,0.36200168
'2:29.750',1.08998138,-0.46005280,-0.21003037,29.30003052,0.36200168
'2:29.875',1.08998138,-0.46005280,-0.21003037,29.30003052,0.36200168
'2:30.000',1.08998138,-0.46005280,-0.21003037,29.10004578,0.36200168
'2:30.125',1.08998138,-0.46005280,-0.21003037,29.30003052,0.36200168
'2:30.250',1.07998352,-0.46005280,-0.20001282,29.30003052,0.36200168
'2:30.375',1.08998138,-0.46005280,-0.20001282,29.30003052,0.36200168
'2:30.500',1.08998138,-0.45005005,-0.21003037,29.30003052,0.36200168
'2:30.625',1.08998138,-0.46005280,-0.21003037,29.30003052,0.36200168
'2:30.750',1.08998138,-0.46005280,-0.21003037,29.30003052,0.36606043
'2:30.875',1.08998138,-0.46005280,-0.21003037,29.30003052,0.36200168
'2:31.000',1.07998352,-0.46005280,-0.21003037,29.30003052,0.36200168
'2:31.125',1.07998352,-0.46005280,-0.21003037,29.30003052,0.36200168
'2:31.250',1.08998138,-0.46005280,-0.21003037,29.30003052,0.36200168
'2:31.375',1.08998138,-0.46005280,-0.21003037,29.30003052,0.36606043
'2:31.500',1.08998138,-0.46005280,-0.21003037,29.30003052,0.36200168
'2:31.625',1.07998352,-0.46005280,-0.21003037,29.30003052,0.36606043
'2:31.750',1.07998352,-0.46005280,-0.21003037,29.30003052,0.36200168
'2:31.875',1.07998352,-0.46005280,-0.21003037,29.30003052,0.36200168
'2:32.000',1.07998352,-0.45005005,-0.21003037,29.30003052,0.36200168
'2:32.125',1.07998352,-0.46005280,-0.21003037,29.30003052,0.36200168
'2:32.250',1.07998352,-0.46005280,-0.21003037,29.30003052,0.36200168
'2:32.375',1.07998352,-0.46005280,-0.21003037,29.30003052,0.36200168
'2:32.500',1.08998138,-0.46005280,-0.21003037,29.30003052,0.36200168
'2:32.625',1.07998352,-0.46005280,-0.21003037,29.30003052,0.36200168
'2:32.750',1.08998138,-0.46005280,-0.21003037,29.30003052,0.36200168
'2:32.875',1.08998138,-0.46005280,-0.21003037,29.30003052,0.36200168
'2:33.000',1.07998352,-0.47005554,-0.21003037,29.30003052,0.36000452
'2:33.125',1.08998138,-0.46005280,-0.21003037,29.30003052,0.36200168
'2:33.250',1.07998352,-0.46005280,-0.21003037,29.30003052,0.36000452
'2:33.375',1.08998138,-0.46005280,-0.21003037,29.30003052,0.36200168
'2:33.500',1.07998352,-0.46005280,-0.21003037,29.30003052,0.36200168
'2:33.625',1.08998138,-0.46005280,-0.21003037,29.30003052,0.36200168
'2:33.750',1.07998352,-0.46005280,-0.21003037,29.30003052,0.36200168
'2:33.875',1.07998352,-0.46005280,-0.21003037,29.30003052,0.36200168
'2:34.000',1.07998352,-0.46005280,-0.21003037,29.30003052,0.36200168
'2:34.125',1.08998138,-0.46005280,-0.21003037,29.30003052,0.36200168
'2:34.250',1.07998352,-0.46005280,-0.21003037,29.30003052,0.36000452
'2:34.375',1.07998352,-0.46005280,-0.21003037,29.30003052,0.36200168
'2:34.500',1.08998138,-0.46005280,-0.21003037,29.30003052,0.36200168
'2:34.625',1.08998138,-0.46005280,-0.21003037,29.30003052,0.36200168
'2:34.750',1.08998138,-0.45005005,-0.21003037,29.30003052,0.36200168
'2:34.875',1.07998352,-0.45005005,-0.21003037,29.30003052,0.36200168
'2:35.000',1.08998138,-0.46005280,-0.21003037,29.30003052,0.36200168
'2:35.125',1.07998352,-0.46005280,-0.21003037,29.30003052,0.36200168
'2:35.250',1.08998138,-0.46005280,-0.21003037,29.30003052,0.36200168
'2:35.375',1.07998352,-0.46005280,-0.20001282,29.30003052,0.36200168
'2:35.500',1.07998352,-0.45005005,-0.21003037,29.30003052,0.36200168
'2:35.625',1.07998352,-0.46005280,-0.21003037,29.30003052,0.36200168
'2:35.750',1.07998352,-0.46005280,-0.21003037,29.30003052,0.36200168
'2:35.875',1.07998352,-0.46005280,-0.21003037,29.30003052,0.36200168
'2:36.000',1.07998352,-0.46005280,-0.21003037,29.30003052,0.36200168
'2:36.125',1.07998352,-0.46005280,-0.20001282,29.30003052,0.36200168
'2:36.250',1.07998352,-0.46005280,-0.21003037,29.30003052,0.36200168
'2:36.375',1.07998352,-0.46005280,-0.21003037,29.30003052,0.36200168
'2:36.500',1.08998138,-0.46005280,-0.21003037,29.30003052,0.36200168
'2:36.625',1.08998138,-0.46005280,-0.21003037,29.30003052,0.36200168
'2:36.750',1.08998138,-0.46005280,-0.21003037,29.30003052,0.36200168
'2:36.875',1.07998352,-0.46005280,-0.21003037,29.30003052,0.36200168
'2:37.000',1.08998138,-0.46005280,-0.21003037,29.30003052,0.36200168
'2:37.125',1.08998138,-0.46005280,-0.21003037,29.30003052,0.36200168
'2:37.250',1.08998138,-0.46005280,-0.21003037,29.30003052,0.36200168
'2:37.375',1.07998352,-0.46005280,-0.21003037,29.30003052,0.36200168
'2:37.500',1.07998352,-0.46005280,-0.21003037,29.30003052,0.36200168
'2:37.625',1.07998352,-0.46005280,-0.21003037,29.30003052,0.36200168
'2:37.750',1.08998138,-0.46005280,-0.20001282,29.30003052,0.36200168
'2:37.875',1.07998352,-0.46005280,-0.21003037,29.30003052,0.36000452
'2:38.000',1.08998138,-0.46005280,-0.21003037,29.30003052,0.36200168
'2:38.125',1.07998352,-0.46005280,-0.21003037,29.30003052,0.36200168
'2:38.250',1.07998352,-0.46005280,-0.21003037,29.30003052,0.36200168
'2:38.375',1.07998352,-0.46005280,-0.21003037,29.30003052,0.36000452
'2:38.500',1.07998352,-0.46005280,-0.20001282,29.30003052,0.36000452
'2:38.625',1.08998138,-0.45005005,-0.21003037,29.30003052,0.36200168
'2:38.750',1.08998138,-0.46005280,-0.21003037,29.30003052,0.36200168
'2:38.875',1.08998138,-0.46005280,-0.21003037,29.30003052,0.36200168
'2:39.000',1.07998352,-0.46005280,-0.21003037,29.30003052,0.36000452
'2:39.125',1.07998352,-0.46005280,-0.21003037,29.30003052,0.36000452
'2:39.250',1.07998352,-0.46005280,-0.21003037,29.30003052,0.36000452
'2:39.375',1.08998138,-0.46005280,-0.21003037,29.30003052,0.36000452
'2:39.500',1.08998138,-0.45005005,-0.21003037,29.30003052,0.36000452
'2:39.625',1.08998138,-0.46005280,-0.21003037,29.30003052,0.36200168
'2:39.750',1.07998352,-0.46005280,-0.21003037,29.30003052,0.36000452
'2:39.875',1.08998138,-0.46005280,-0.21003037,29.30003052,0.36000452
'2:40.000',1.07998352,-0.46005280,-0.20001282,29.30003052,0.36000452
'2:40.125',1.07998352,-0.46005280,-0.21003037,29.30003052,0.36000452
'2:40.250',1.07998352,-0.46005280,-0.21003037,29.30003052,0.36000452
'2:40.375',1.08998138,-0.46005280,-0.21003037,29.30003052,0.36000452
'2:40.500',1.08998138,-0.46005280,-0.21003037,29.30003052,0.36200168
'2:40.625',1.07998352,-0.46005280,-0.21003037,29.30003052,0.36000452
'2:40.750',1.08998138,-0.46005280,-0.21003037,29.30003052,0.36000452
'2:40.875',1.08998138,-0.46005280,-0.21003037,29.30003052,0.36000452
'2:41.000',1.08998138,-0.46005280,-0.21003037,29.50001526,0.36000452
'2:41.125',1.07998352,-0.46005280,-0.20001282,29.30003052,0.36000452
'2:41.250',1.08998138,-0.46005280,-0.21003037,29.30003052,0.36000452
'2:41.375',1.08998138,-0.46005280,-0.21003037,29.30003052,0.36000452
'2:41.500',1.08998138,-0.46005280,-0.21003037,29.30003052,0.36000452
'2:41.625',1.07998352,-0.46005280,-0.21003037,29.30003052,0.36000452
'2:41.750',1.07998352,-0.45005005,-0.21003037,29.30003052,0.36000452
'2:41.875',1.08998138,-0.46005280,-0.21003037,29.30003052,0.36000452
'2:42.000',1.07998352,-0.46005280,-0.21003037,29.30003052,0.36000452
'2:42.125',1.07998352,-0.46005280,-0.20001282,29.50001526,0.36000452
'2:42.250',1.08998138,-0.46005280,-0.21003037,29.30003052,0.36000452
'2:42.375',1.08998138,-0.46005280,-0.20001282,29.30003052,0.36000452
'2:42.500',1.08998138,-0.46005280,-0.21003037,29.50001526,0.36000452
'2:42.625',1.08998138,-0.46005280,-0.21003037,29.30003052,0.36000452
'2:42.750',1.07998352,-0.46005280,-0.21003037,29.30003052,0.36000452
'2:42.875',1.08998138,-0.46005280,-0.21003037,29.30003052,0.36000452
'2:43.000',1.08998138,-0.46005280,-0.21003037,29.30003052,0.36000452
'2:43.125',1.08998138,-0.46005280,-0.20001282,29.30003052,0.36000452
'2:43.250',1.08998138,-0.46005280,-0.21003037,29.30003052,0.36000452
'2:43.375',1.07998352,-0.46005280,-0.20001282,29.50001526,0.36000452
'2:43.500',1.08998138,-0.46005280,-0.21003037,29.30003052,0.36000452
'2:43.625',1.08998138,-0.46005280,-0.21003037,29.30003052,0.36000452
'2:43.750',1.08998138,-0.45005005,-0.21003037,29.50001526,0.36000452
'2:43.875',1.08998138,-0.46005280,-0.21003037,29.30003052,0.36000452
'2:44.000',1.07998352,-0.46005280,-0.21003037,29.30003052,0.36000452
'2:44.125',1.07998352,-0.46005280,-0.21003037,29.50001526,0.36000452
'2:44.250',1.08998138,-0.45005005,-0.21003037,29.50001526,0.36000452
'2:44.375',1.07998352,-0.46005280,-0.21003037,29.30003052,0.36000452
'2:44.500',1.07998352,-0.46005280,-0.21003037,29.30003052,0.36000452
'2:44.625',1.08998138,-0.45005005,-0.21003037,29.30003052,0.36000452
'2:44.750',1.08998138,-0.45005005,-0.21003037,29.30003052,0.35704099
'2:44.875',1.08998138,-0.46005280,-0.21003037,29.30003052,0.36000452
'2:45.000',1.08998138,-0.46005280,-0.21003037,29.30003052,0.36000452
'2:45.125',1.07998352,-0.46005280,-0.21003037,29.30003052,0.35704099
'2:45.250',1.07998352,-0.46005280,-0.21003037,29.30003052,0.36000452
'2:45.375',1.07998352,-0.46005280,-0.20001282,29.50001526,0.36000452
'2:45.500',1.07998352,-0.46005280,-0.21003037,29.50001526,0.36000452
'2:45.625',1.08998138,-0.46005280,-0.21003037,29.30003052,0.36000452
'2:45.750',1.07998352,-0.47005554,-0.21003037,29.50001526,0.35704099
'2:45.875',1.08998138,-0.46005280,-0.21003037,29.50001526,0.36000452
'2:46.000',1.07998352,-0.46005280,-0.21003037,29.50001526,0.36000452
'2:46.125',1.07998352,-0.46005280,-0.21003037,29.50001526,0.36000452
'2:46.250',1.08998138,-0.46005280,-0.20001282,29.30003052,0.35704099
'2:46.375',1.07998352,-0.46005280,-0.21003037,29.50001526,0.36000452
'2:46.500',1.07998352,-0.46005280,-0.21003037,29.30003052,0.36000452
'2:46.625',1.08998138,-0.45005005,-0.21003037,29.50001526,0.36000452
'2:46.750',1.07998352,-0.46005280,-0.21003037,29.50001526,0.36000452
'2:46.875',1.08998138,-0.46005280,-0.21003037,29.50001526,0.36000452
'2:47.000',1.07998352,-0.46005280,-0.21003037,29.30003052,0.36000452
'2:47.125',1.08998138,-0.45005005,-0.21003037,29.50001526,0.36000452
'2:47.250',1.08998138,-0.46005280,-0.21003037,29.50001526,0.36000452
'2:47.375',1.08998138,-0.46005280,-0.21003037,29.30003052,0.35704099
'2:47.500',1.07998352,-0.46005280,-0.21003037,29.30003052,0.36000452
'2:47.625',1.07998352,-0.46005280,-0.21003037,29.50001526,0.36000452
'2:47.750',1.08998138,-0.46005280,-0.20001282,29.30003052,0.35704099
'2:47.875',1.07998352,-0.46005280,-0.21003037,29.50001526,0.35704099
'2:48.000',1.07998352,-0.46005280,-0.21003037,29.50001526,0.36000452
'2:48.125',1.07998352,-0.45005005,-0.21003037,29.50001526,0.36000452
'2:48.250',1.07998352,-0.46005280,-0.20001282,29.30003052,0.36000452
'2:48.375',1.07998352,-0.45005005,-0.21003037,29.50001526,0.36000452
'2:48.500',1.08998138,-0.46005280,-0.20001282,29.50001526,0.36000452
'2:48.625',1.07998352,-0.46005280,-0.21003037,29.30003052,0.36000452
'2:48.750',1.07998352,-0.46005280,-0.20001282,29.50001526,0.36000452
'2:48.875',1.07998352,-0.46005280,-0.21003037,29.50001526,0.35704099
'2:49.000',1.07998352,-0.46005280,-0.21003037,29.30003052,0.36000452
'2:49.125',1.07998352,-0.46005280,-0.21003037,29.50001526,0.36000452
'2:49.250',1.07998352,-0.46005280,-0.21003037,29.50001526,0.36000452
'2:49.375',1.08998138,-0.46005280,-0.21003037,29.50001526,0.36000452
'2:49.500',1.07998352,-0.46005280,-0.21003037,29.50001526,0.36000452
'2:49.625',1.07998352,-0.46005280,-0.21003037,29.50001526,0.36000452
'2:49.750',1.08998138,-0.46005280,-0.21003037,29.50001526,0.36000452
'2:49.875',1.07998352,-0.46005280,-0.20001282,29.50001526,0.36000452
'2:50.000',1.08998138,-0.46005280,-0.21003037,29.50001526,0.36000452
'2:50.125',1.08998138,-0.46005280,-0.21003037,29.50001526,0.36000452
'2:50.250',1.07998352,-0.46005280,-0.21003037,29.50001526,0.36000452
'2:50.375',1.07998352,-0.46005280,-0.21003037,29.50001526,0.36000452
'2:50.500',1.08998138,-0.45005005,-0.21003037,29.50001526,0.35704099
'2:50.625',1.08998138,-0.46005280,-0.21003037,29.50001526,0.35704099
'2:50.750',1.07998352,-0.46005280,-0.21003037,29.30003052,0.36000452
'2:50.875',1.07998352,-0.46005280,-0.21003037,29.50001526,0.36000452
'2:51.000',1.08998138,-0.46005280,-0.21003037,29.50001526,0.36000452
'2:51.125',1.08998138,-0.46005280,-0.21003037,29.50001526,0.35704099
'2:51.250',1.07998352,-0.45005005,-0.21003037,29.50001526,0.36000452
'2:51.375',1.07998352,-0.46005280,-0.21003037,29.50001526,0.35704099
'2:51.500',1.07998352,-0.46005280,-0.21003037,29.50001526,0.36000452
'2:51.625',1.07998352,-0.46005280,-0.21003037,29.50001526,0.36000452
'2:51.750',1.08998138,-0.46005280,-0.21003037,29.50001526,0.36000452
'2:51.875',1.08998138,-0.46005280,-0.21003037,29.50001526,0.36000452
'2:52.000',1.07998352,-0.47005554,-0.20001282,29.50001526,0.36000452
'2:52.125',1.08998138,-0.46005280,-0.21003037,29.50001526,0.36000452
'2:52.250',1.08998138,-0.46005280,-0.21003037,29.50001526,0.35704099
'2:52.375',1.07998352,-0.46005280,-0.21003037,29.50001526,0.36000452
'2:52.500',1.07998352,-0.46005280,-0.20001282,29.50001526,0.36000452
'2:52.625',1.07998352,-0.46005280,-0.21003037,29.50001526,0.36000452
'2:52.750',1.07998352,-0.45005005,-0.21003037,29.50001526,0.36000452
'2:52.875',1.08998138,-0.46005280,-0.20001282,29.50001526,0.36000452
'2:53.000',1.07998352,-0.46005280,-0.21003037,29.50001526,0.36000452
'2:53.125',1.07998352,-0.46005280,-0.20001282,29.50001526,0.36000452
'2:53.250',1.08998138,-0.46005280,-0.21003037,29.50001526,0.36000452
'2:53.375',1.07998352,-0.46005280,-0.21003037,29.50001526,0.36000452
'2:53.500',1.07998352,-0.46005280,-0.21003037,29.50001526,0.36000452
'2:53.625',1.08998138,-0.46005280,-0.21003037,29.50001526,0.36000452
'2:53.750',1.07998352,-0.46005280,-0.21003037,29.50001526,0.36000452
'2:53.875',1.08998138,-0.46005280,-0.21003037,29.50001526,0.36000452
'2:54.000',1.07998352,-0.46005280,-0.21003037,29.50001526,0.35704099
'2:54.125',1.07998352,-0.46005280,-0.21003037,29.50001526,0.36000452
'2:54.250',1.07998352,-0.45005005,-0.21003037,29.50001526,0.35704099
'2:54.375',1.07998352,-0.46005280,-0.21003037,29.50001526,0.36000452
'2:54.500',1.08998138,-0.46005280,-0.20001282,29.50001526,0.36000452
'2:54.625',1.07998352,-0.46005280,-0.20001282,29.50001526,0.36000452
'2:54.750',1.08998138,-0.45005005,-0.21003037,29.50001526,0.35704099
'2:54.875',1.07998352,-0.46005280,-0.21003037,29.50001526,0.36000452
'2:55.000',1.08998138,-0.46005280,-0.20001282,29.50001526,0.36000452
'2:55.125',1.08998138,-0.46005280,-0.21003037,29.50001526,0.35704099
'2:55.250',1.07998352,-0.46005280,-0.21003037,29.50001526,0.36000452
'2:55.375',1.07998352,-0.46005280,-0.21003037,29.50001526,0.36000452
'2:55.500',1.08998138,-0.46005280,-0.21003037,29.50001526,0.35704099
'2:55.625',1.07998352,-0.46005280,-0.21003037,29.50001526,0.35704099
'2:55.750',1.07998352,-0.46005280,-0.21003037,29.50001526,0.35704099
'2:55.875',1.07998352,-0.46005280,-0.21003037,29.50001526,0.36000452
'2:56.000',1.07998352,-0.46005280,-0.21003037,29.50001526,0.35704099
'2:56.125',1.07998352,-0.46005280,-0.21003037,29.50001526,0.36000452
'2:56.250',1.07998352,-0.46005280,-0.21003037,29.50001526,0.36000452
'2:56.375',1.08998138,-0.46005280,-0.21003037,29.50001526,0.35704099
'2:56.500',1.07998352,-0.46005280,-0.21003037,29.50001526,0.36000452
'2:56.625',1.07998352,-0.46005280,-0.20001282,29.50001526,0.35704099
'2:56.750',1.08998138,-0.46005280,-0.21003037,29.50001526,0.35704099
'2:56.875',1.07998352,-0.45005005,-0.21003037,29.50001526,0.35704099
'2:57.000',1.07998352,-0.46005280,-0.21003037,29.50001526,0.35704099
'2:57.125',1.08998138,-0.46005280,-0.21003037,29.50001526,0.36000452
'2:57.250',1.07998352,-0.46005280,-0.21003037,29.50001526,0.36000452
'2:57.375',1.08998138,-0.46005280,-0.20001282,29.50001526,0.35704099
'2:57.500',1.07998352,-0.46005280,-0.21003037,29.50001526,0.36000452
'2:57.625',1.08998138,-0.45005005,-0.21003037,29.50001526,0.36000452
'2:57.750',1.08998138,-0.46005280,-0.21003037,29.50001526,0.36000452
'2:57.875',1.07998352,-0.46005280,-0.21003037,29.50001526,0.35704099
'2:58.000',1.07998352,-0.46005280,-0.21003037,29.50001526,0.35704099
'2:58.125',1.08998138,-0.46005280,-0.21003037,29.50001526,0.35704099
'2:58.250',1.08998138,-0.46005280,-0.21003037,29.50001526,0.35704099
'2:58.375',1.08998138,-0.46005280,-0.21003037,29.50001526,0.35704099
'2:58.500',1.07998352,-0.46005280,-0.21003037,29.50001526,0.36000452
'2:58.625',1.08998138,-0.46005280,-0.21003037,29.50001526,0.35704099
'2:58.750',1.07998352,-0.46005280,-0.21003037,29.50001526,0.36000452
'2:58.875',1.07998352,-0.46005280,-0.21003037,29.50001526,0.35704099
'2:59.000',1.08998138,-0.46005280,-0.21003037,29.50001526,0.35704099
'2:59.125',1.07998352,-0.46005280,-0.20001282,29.50001526,0.35704099
'2:59.250',1.08998138,-0.46005280,-0.20001282,29.50001526,0.35704099
'2:59.375',1.07998352,-0.46005280,-0.21003037,29.50001526,0.35704099
'2:59.500',1.08998138,-0.46005280,-0.21003037,29.50001526,0.36000452
'2:59.625',1.07998352,-0.46005280,-0.20001282,29.50001526,0.35704099
'2:59.750',1.07998352,-0.46005280,-0.21003037,29.50001526,0.36000452
'2:59.875',1.08998138,-0.46005280,-0.20001282,29.50001526,0.35704099
'3:00.000',1.07998352,-0.46005280,-0.21003037,29.50001526,0.35704099
'3:00.125',1.08998138,-0.45005005,-0.21003037,29.50001526,0.35401303
'3:00.250',1.07998352,-0.46005280,-0.21003037,29.50001526,0.35704099
'3:00.375',1.08998138,-0.46005280,-0.21003037,29.50001526,0.35704099
'3:00.500',1.07998352,-0.46005280,-0.21003037,29.50001526,0.35704099
'3:00.625',1.07998352,-0.46005280,-0.21003037,29.50001526,0.35401303
'3:00.750',1.08998138,-0.46005280,-0.21003037,29.50001526,0.35704099
'3:00.875',1.07998352,-0.46005280,-0.21003037,29.50001526,0.35704099
'3:01.000',1.07998352,-0.47005554,-0.21003037,29.50001526,0.35704099
'3:01.125',1.08998138,-0.46005280,-0.21003037,29.50001526,0.35704099
'3:01.250',1.07998352,-0.46005280,-0.20001282,29.50001526,0.35704099
'3:01.375',1.07998352,-0.46005280,-0.20001282,29.50001526,0.35401303
'3:01.500',1.08998138,-0.46005280,-0.21003037,29.50001526,0.35704099
'3:01.625',1.08998138,-0.46005280,-0.21003037,29.50001526,0.35800735
'3:01.750',1.07998352,-0.46005280,-0.21003037,29.50001526,0.35800735
'3:01.875',1.08998138,-0.46005280,-0.21003037,29.50001526,0.35401303
'3:02.000',1.07998352,-0.46005280,-0.21003037,29.50001526,0.35401303
'3:02.125',1.08998138,-0.46005280,-0.21003037,29.50001526,0.35401303
'3:02.250',1.08998138,-0.46005280,-0.20001282,29.50001526,0.35401303
'3:02.375',1.08998138,-0.46005280,-0.21003037,29.50001526,0.35401303
'3:02.500',1.08998138,-0.46005280,-0.20001282,29.50001526,0.35401303
'3:02.625',1.08998138,-0.45005005,-0.20001282,29.50001526,0.35401303
'3:02.750',1.07998352,-0.46005280,-0.21003037,29.50001526,0.35401303
'3:02.875',1.07998352,-0.46005280,-0.21003037,29.50001526,0.35401303
'3:03.000',1.07998352,-0.46005280,-0.20001282,29.50001526,0.35401303
'3:03.125',1.07998352,-0.46005280,-0.21003037,29.50001526,0.35401303
'3:03.250',1.07998352,-0.45005005,-0.20001282,29.50001526,0.35401303
'3:03.375',1.08998138,-0.46005280,-0.21003037,29.50001526,0.35401303
'3:03.500',1.07998352,-0.46005280,-0.21003037,29.50001526,0.35401303
'3:03.625',1.07998352,-0.46005280,-0.21003037,29.50001526,0.35401303
'3:03.750',1.07998352,-0.46005280,-0.21003037,29.50001526,0.35401303
'3:03.875',1.08998138,-0.46005280,-0.21003037,29.50001526,0.35401303
'3:04.000',1.07998352,-0.46005280,-0.21003037,29.50001526,0.35401303
'3:04.125',1.07998352,-0.46005280,-0.21003037,29.50001526,0.35401303
'3:04.250',1.08998138,-0.46005280,-0.21003037,29.50001526,0.35401303
'3:04.375',1.07998352,-0.46005280,-0.20001282,29.50001526,0.35704099
'3:04.500',1.08998138,-0.46005280,-0.21003037,29.50001526,0.35401303
'3:04.625',1.07998352,-0.46005280,-0.21003037,29.70000000,0.35401303
'3:04.750',1.07998352,-0.46005280,-0.21003037,29.50001526,0.35401303
'3:04.875',1.07998352,-0.45005005,-0.21003037,29.50001526,0.35401303
'3:05.000',1.07998352,-0.46005280,-0.21003037,29.70000000,0.35401303
'3:05.125',1.07998352,-0.46005280,-0.21003037,29.70000000,0.35401303
'3:05.250',1.07998352,-0.46005280,-0.21003037,29.50001526,0.35401303
'3:05.375',1.07998352,-0.46005280,-0.21003037,29.50001526,0.35401303
'3:05.500',1.07998352,-0.46005280,-0.20001282,29.50001526,0.35401303
'3:05.625',1.07998352,-0.46005280,-0.21003037,29.50001526,0.35401303
'3:05.750',1.07998352,-0.46005280,-0.21003037,29.50001526,0.35401303
'3:05.875',1.07998352,-0.46005280,-0.21003037,29.50001526,0.35401303
'3:06.000',1.07998352,-0.46005280,-0.21003037,29.50001526,0.35401303
'3:06.125',1.08998138,-0.46005280,-0.21003037,29.70000000,0.35401303
'3:06.250',1.08998138,-0.46005280,-0.21003037,29.50001526,0.35401303
'3:06.375',1.08998138,-0.46005280,-0.21003037,29.50001526,0.35401303
'3:06.500',1.08998138,-0.46005280,-0.21003037,29.50001526,0.35401303
'3:06.625',1.08998138,-0.46005280,-0.21003037,29.50001526,0.35800735
'3:06.750',1.08998138,-0.46005280,-0.21003037,29.70000000,0.35401303
'3:06.875',1.08998138,-0.46005280,-0.21003037,29.70000000,0.35401303
'3:07.000',1.08998138,-0.46005280,-0.20001282,29.50001526,0.35401303
'3:07.125',1.08998138,-0.46005280,-0.21003037,29.50001526,0.35401303
'3:07.250',1.07998352,-0.46005280,-0.21003037,29.70000000,0.35401303
'3:07.375',1.07998352,-0.46005280,-0.20001282,29.50001526,0.35401303
'3:07.500',1.07998352,-0.46005280,-0.21003037,29.70000000,0.35401303
'3:07.625',1.08998138,-0.46005280,-0.21003037,29.50001526,0.35401303
'3:07.750',1.08998138,-0.46005280,-0.21003037,29.50001526,0.35401303
'3:07.875',1.07998352,-0.46005280,-0.21003037,29.50001526,0.35401303
'3:08.000',1.08998138,-0.46005280,-0.21003037,29.50001526,0.35401303
'3:08.125',1.07998352,-0.46005280,-0.21003037,29.50001526,0.35401303
'3:08.250',1.08998138,-0.46005280,-0.20001282,29.50001526,0.35401303
'3:08.375',1.07998352,-0.46005280,-0.21003037,29.70000000,0.35401303
'3:08.500',1.07998352,-0.46005280,-0.21003037,29.70000000,0.35401303
'3:08.625',1.08998138,-0.46005280,-0.21003037,29.50001526,0.35401303
'3:08.750',1.08998138,-0.46005280,-0.21003037,29.70000000,0.35401303
'3:08.875',1.07998352,-0.46005280,-0.20001282,29.70000000,0.35401303
'3:09.000',1.07998352,-0.46005280,-0.21003037,29.50001526,0.35401303
'3:09.125',1.08998138,-0.46005280,-0.21003037,29.70000000,0.35401303
'3:09.250',1.08998138,-0.46005280,-0.21003037,29.50001526,0.35401303
'3:09.375',1.07998352,-0.46005280,-0.21003037,29.50001526,0.35401303
'3:09.500',1.07998352,-0.46005280,-0.21003037,29.50001526,0.35401303
'3:09.625',1.08998138,-0.46005280,-0.21003037,29.50001526,0.35401303
'3:09.750',1.07998352,-0.46005280,-0.21003037,29.50001526,0.35401303
'3:09.875',1.07998352,-0.46005280,-0.21003037,29.70000000,0.35401303
'3:10.000',1.08998138,-0.46005280,-0.21003037,29.50001526,0.35401303
'3:10.125',1.07998352,-0.46005280,-0.21003037,29.70000000,0.35401303
'3:10.250',1.07998352,-0.46005280,-0.21003037,29.70000000,0.35401303
'3:10.375',1.07998352,-0.46005280,-0.21003037,29.70000000,0.35401303
'3:10.500',1.07998352,-0.46005280,-0.21003037,29.70000000,0.35401303
'3:10.625',1.07998352,-0.46005280,-0.21003037,29.50001526,0.35401303
'3:10.750',1.08998138,-0.47005554,-0.21003037,29.70000000,0.35401303
'3:10.875',1.07998352,-0.46005280,-0.21003037,29.50001526,0.35401303
'3:11.000',1.08998138,-0.46005280,-0.21003037,29.70000000,0.35401303
'3:11.125',1.07998352,-0.46005280,-0.21003037,29.70000000,0.35401303
'3:11.250',1.07998352,-0.46005280,-0.21003037,29.70000000,0.35401303
'3:11.375',1.07998352,-0.46005280,-0.21003037,29.70000000,0.35401303
'3:11.500',1.07998352,-0.46005280,-0.21003037,29.70000000,0.35401303
'3:11.625',1.08998138,-0.46005280,-0.21003037,29.70000000,0.35401303
'3:11.750',1.07998352,-0.46005280,-0.21003037,29.50001526,0.35401303
'3:11.875',1.08998138,-0.46005280,-0.21003037,29.70000000,0.35401303
'3:12.000',1.08998138,-0.46005280,-0.21003037,29.70000000,0.35401303
'3:12.125',1.07998352,-0.46005280,-0.21003037,29.70000000,0.35401303
'3:12.250',1.08998138,-0.46005280,-0.21003037,29.70000000,0.35401303
'3:12.375',1.08998138,-0.46005280,-0.21003037,29.70000000,0.35401303
'3:12.500',1.07998352,-0.46005280,-0.21003037,29.70000000,0.35401303
'3:12.625',1.08998138,-0.46005280,-0.21003037,29.70000000,0.35401303
'3:12.750',1.08998138,-0.45005005,-0.21003037,29.70000000,0.35401303
'3:12.875',1.08998138,-0.46005280,-0.21003037,29.70000000,0.35401303
'3:13.000',1.08998138,-0.45005005,-0.21003037,29.70000000,0.35401303
'3:13.125',1.08998138,-0.46005280,-0.21003037,29.70000000,0.35401303
'3:13.250',1.07998352,-0.46005280,-0.21003037,29.70000000,0.35401303
'3:13.375',1.08998138,-0.46005280,-0.20001282,29.70000000,0.35401303
'3:13.500',1.08998138,-0.46005280,-0.21003037,29.70000000,0.35401303
'3:13.625',1.07998352,-0.46005280,-0.21003037,29.70000000,0.35401303
'3:13.750',1.08998138,-0.45005005,-0.20001282,29.70000000,0.35401303
'3:13.875',1.08998138,-0.46005280,-0.21003037,29.50001526,0.35401303
'3:14.000',1.08998138,-0.46005280,-0.21003037,29.70000000,0.35401303
'3:14.125',1.08998138,-0.46005280,-0.21003037,29.70000000,0.35401303
'3:14.250',1.08998138,-0.46005280,-0.21003037,29.70000000,0.35401303
'3:14.375',1.08998138,-0.46005280,-0.21003037,29.70000000,0.35401303
'3:14.500',1.08998138,-0.46005280,-0.21003037,29.50001526,0.35401303
'3:14.625',1.07998352,-0.46005280,-0.21003037,29.70000000,0.35401303
'3:14.750',1.07998352,-0.46005280,-0.21003037,29.70000000,0.35401303
'3:14.875',1.07998352,-0.46005280,-0.21003037,29.70000000,0.35401303
'3:15.000',1.08998138,-0.46005280,-0.21003037,29.70000000,0.35401303
'3:15.125',1.07998352,-0.46005280,-0.21003037,29.70000000,0.35401303
'3:15.250',1.08998138,-0.46005280,-0.21003037,29.70000000,0.35401303
'3:15.375',1.08998138,-0.46005280,-0.20001282,29.70000000,0.35401303
'3:15.500',1.07998352,-0.46005280,-0.21003037,29.70000000,0.35401303
'3:15.625',1.07998352,-0.46005280,-0.21003037,29.70000000,0.35401303
'3:15.750',1.07998352,-0.46005280,-0.21003037,29.70000000,0.35401303
'3:15.875',1.08998138,-0.46005280,-0.21003037,29.70000000,0.35401303
'3:16.000',1.07998352,-0.47005554,-0.21003037,29.70000000,0.35401303
'3:16.125',1.08998138,-0.46005280,-0.21003037,29.70000000,0.35401303
'3:16.250',1.07998352,-0.46005280,-0.21003037,29.70000000,0.35401303
'3:16.375',1.07998352,-0.46005280,-0.21003037,29.70000000,0.35401303
'3:16.500',1.07998352,-0.46005280,-0.21003037,29.70000000,0.35401303
'3:16.625',1.08998138,-0.46005280,-0.21003037,29.70000000,0.35401303
'3:16.750',1.08998138,-0.46005280,-0.20001282,29.70000000,0.35401303
'3:16.875',1.07998352,-0.45005005,-0.21003037,29.70000000,0.35401303
'3:17.000',1.07998352,-0.46005280,-0.21003037,29.70000000,0.35401303
'3:17.125',1.08998138,-0.46005280,-0.21003037,29.70000000,0.35401303
'3:17.250',1.07998352,-0.46005280,-0.21003037,29.70000000,0.35401303
'3:17.375',1.08998138,-0.46005280,-0.21003037,29.70000000,0.35401303
'3:17.500',1.07998352,-0.45005005,-0.21003037,29.70000000,0.35401303
'3:17.625',1.07998352,-0.46005280,-0.20001282,29.70000000,0.35401303
'3:17.750',1.07998352,-0.46005280,-0.21003037,29.70000000,0.35401303
'3:17.875',1.07998352,-0.46005280,-0.21003037,29.70000000,0.35401303
'3:18.000',1.07998352,-0.46005280,-0.21003037,29.70000000,0.35401303
'3:18.125',1.07998352,-0.46005280,-0.21003037,29.70000000,0.35401303
'3:18.250',1.07998352,-0.46005280,-0.21003037,29.70000000,0.35401303
'3:18.375',1.07998352,-0.46005280,-0.21003037,29.70000000,0.35104950
'3:18.500',1.07998352,-0.46005280,-0.21003037,29.70000000,0.35401303
'3:18.625',1.08998138,-0.46005280,-0.21003037,29.70000000,0.35401303
'3:18.750',1.08998138,-0.46005280,-0.21003037,29.70000000,0.35401303
'3:18.875',1.07998352,-0.46005280,-0.21003037,29.70000000,0.35401303
'3:19.000',1.07998352,-0.46005280,-0.21003037,29.70000000,0.35401303
'3:19.125',1.08998138,-0.46005280,-0.21003037,29.70000000,0.35401303
'3:19.250',1.07998352,-0.46005280,-0.21003037,29.70000000,0.35401303
'3:19.375',1.07998352,-0.46005280,-0.21003037,29.70000000,0.35401303
'3:19.500',1.07998352,-0.46005280,-0.21003037,29.70000000,0.35401303
'3:19.625',1.07998352,-0.46005280,-0.21003037,29.70000000,0.35401303
'3:19.750',1.07998352,-0.46005280,-0.21003037,29.70000000,0.35104950
'3:19.875',1.07998352,-0.46005280,-0.21003037,29.70000000,0.35401303
'3:20.000',1.07998352,-0.46005280,-0.21003037,29.70000000,0.35201587
'3:20.125',1.07998352,-0.46005280,-0.21003037,29.70000000,0.35401303
'3:20.250',1.07998352,-0.46005280,-0.21003037,29.70000000,0.35401303
'3:20.375',1.07998352,-0.46005280,-0.21003037,29.70000000,0.35401303
'3:20.500',1.08998138,-0.46005280,-0.21003037,29.70000000,0.35401303
'3:20.625',1.08998138,-0.46005280,-0.21003037,29.70000000,0.35201587
'3:20.750',1.08998138,-0.46005280,-0.21003037,29.70000000,0.35104950
'3:20.875',1.07998352,-0.46005280,-0.21003037,29.70000000,0.35401303
'3:21.000',1.07998352,-0.45005005,-0.20001282,29.70000000,0.35401303
'3:21.125',1.08998138,-0.46005280,-0.21003037,29.70000000,0.35401303
'3:21.250',1.08998138,-0.46005280,-0.21003037,29.70000000,0.35104950
'3:21.375',1.07998352,-0.46005280,-0.21003037,29.70000000,0.35401303
'3:21.500',1.08998138,-0.46005280,-0.21003037,29.70000000,0.35401303
'3:21.625',1.08998138,-0.46005280,-0.21003037,29.70000000,0.35401303
'3:21.750',1.07998352,-0.46005280,-0.21003037,29.70000000,0.35401303
'3:21.875',1.08998138,-0.45005005,-0.21003037,29.70000000,0.35401303
'3:22.000',1.08998138,-0.46005280,-0.21003037,29.70000000,0.35401303
'3:22.125',1.07998352,-0.46005280,-0.20001282,29.70000000,0.35401303
'3:22.250',1.07998352,-0.46005280,-0.21003037,29.70000000,0.35401303
'3:22.375',1.08998138,-0.46005280,-0.21003037,29.70000000,0.35401303
'3:22.500',1.08998138,-0.46005280,-0.21003037,29.70000000,0.34905234
'3:22.625',1.07998352,-0.46005280,-0.21003037,29.89998474,0.35201587
'3:22.750',1.08998138,-0.46005280,-0.21003037,29.89998474,0.35104950
'3:22.875',1.07998352,-0.46005280,-0.21003037,29.89998474,0.35401303
'3:23.000',1.07998352,-0.47005554,-0.21003037,29.89998474,0.35201587
'3:23.125',1.07998352,-0.46005280,-0.21003037,29.89998474,0.35504382
'3:23.250',1.06998566,-0.46005280,-0.21003037,29.70000000,0.35504382
'3:23.375',1.08998138,-0.46005280,-0.21003037,29.70000000,0.35104950
'3:23.500',1.07998352,-0.46005280,-0.21003037,29.70000000,0.34905234
'3:23.625',1.08998138,-0.46005280,-0.21003037,29.70000000,0.35104950
'3:23.750',1.07998352,-0.46005280,-0.21003037,29.70000000,0.35401303
'3:23.875',1.07998352,-0.46005280,-0.21003037,29.70000000,0.35104950
'3:24.000',1.08998138,-0.46005280,-0.20001282,29.70000000,0.35401303
'3:24.125',1.07998352,-0.46005280,-0.21003037,29.70000000,0.35401303
'3:24.250',1.08998138,-0.46005280,-0.21003037,29.70000000,0.35104950
'3:24.375',1.07998352,-0.46005280,-0.21003037,29.70000000,0.35104950
'3:24.500',1.08998138,-0.46005280,-0.21003037,29.70000000,0.35104950
'3:24.625',1.07998352,-0.46005280,-0.21003037,29.70000000,0.35104950
'3:24.750',1.07998352,-0.46005280,-0.21003037,29.70000000,0.35401303
'3:24.875',1.07998352,-0.46005280,-0.21003037,29.70000000,0.34905234
'3:25.000',1.07998352,-0.46005280,-0.21003037,29.70000000,0.34905234
'3:25.125',1.07998352,-0.46005280,-0.21003037,29.70000000,0.35401303
'3:25.250',1.07998352,-0.46005280,-0.21003037,29.70000000,0.35401303
'3:25.375',1.08998138,-0.46005280,-0.21003037,29.70000000,0.35201587
'3:25.500',1.07998352,-0.46005280,-0.21003037,29.70000000,0.35401303
'3:25.625',1.07998352,-0.46005280,-0.21003037,29.70000000,0.35401303
'3:25.750',1.07998352,-0.46005280,-0.21003037,29.70000000,0.35201587
'3:25.875',1.07998352,-0.46005280,-0.21003037,29.70000000,0.34905234
'3:26.000',1.07998352,-0.46005280,-0.21003037,29.70000000,0.35401303
'3:26.125',1.07998352,-0.46005280,-0.21003037,29.70000000,0.35401303
'3:26.250',1.07998352,-0.46005280,-0.21003037,29.70000000,0.35104950
'3:26.375',1.07998352,-0.46005280,-0.21003037,29.70000000,0.35104950
'3:26.500',1.07998352,-0.46005280,-0.21003037,29.70000000,0.35104950
'3:26.625',1.07998352,-0.45005005,-0.21003037,29.70000000,0.35401303
'3:26.750',1.07998352,-0.46005280,-0.21003037,29.70000000,0.34905234
'3:26.875',1.08998138,-0.46005280,-0.21003037,29.70000000,0.35201587
'3:27.000',1.08998138,-0.46005280,-0.21003037,29.89998474,0.35104950
'3:27.125',1.08998138,-0.46005280,-0.21003037,29.89998474,0.34905234
'3:27.250',1.08998138,-0.46005280,-0.21003037,29.70000000,0.35201587
'3:27.375',1.08998138,-0.46005280,-0.21003037,29.70000000,0.35104950
'3:27.500',1.07998352,-0.46005280,-0.21003037,29.70000000,0.35104950
'3:27.625',1.08998138,-0.46005280,-0.21003037,29.70000000,0.35401303
'3:27.750',1.07998352,-0.46005280,-0.21003037,29.70000000,0.35401303
'3:27.875',1.07998352,-0.46005280,-0.21003037,29.70000000,0.34905234
'3:28.000',1.07998352,-0.46005280,-0.21003037,29.70000000,0.35104950
'3:28.125',1.07998352,-0.46005280,-0.21003037,29.70000000,0.35104950
'3:28.250',1.07998352,-0.45005005,-0.21003037,29.70000000,0.35104950
'3:28.375',1.07998352,-0.46005280,-0.21003037,29.70000000,0.35104950
'3:28.500',1.08998138,-0.46005280,-0.21003037,29.70000000,0.35201587
'3:28.625',1.08998138,-0.46005280,-0.21003037,29.70000000,0.35401303
'3:28.750',1.07998352,-0.46005280,-0.21003037,29.70000000,0.35401303
'3:28.875',1.07998352,-0.46005280,-0.21003037,29.70000000,0.35104950
'3:29.000',1.08998138,-0.46005280,-0.21003037,29.70000000,0.35401303
'3:29.125',1.07998352,-0.46005280,-0.21003037,29.70000000,0.34905234
'3:29.250',1.08998138,-0.46005280,-0.21003037,29.70000000,0.35401303
'3:29.375',1.07998352,-0.46005280,-0.21003037,29.70000000,0.34905234
'3:29.500',1.08998138,-0.46005280,-0.21003037,29.70000000,0.34905234
'3:29.625',1.07998352,-0.46005280,-0.21003037,29.70000000,0.34905234
'3:29.750',1.08998138,-0.46005280,-0.21003037,29.89998474,0.34905234
'3:29.875',1.07998352,-0.45005005,-0.21003037,29.70000000,0.35201587
'3:30.000',1.08998138,-0.46005280,-0.21003037,29.70000000,0.35104950
'3:30.125',1.07998352,-0.46005280,-0.20001282,29.70000000,0.35401303
'3:30.250',1.08998138,-0.46005280,-0.21003037,29.70000000,0.35104950
'3:30.375',1.07998352,-0.46005280,-0.20001282,29.70000000,0.35104950
'3:30.500',1.08998138,-0.45005005,-0.21003037,29.89998474,0.35104950
'3:30.625',1.08998138,-0.46005280,-0.21003037,29.70000000,0.34905234
'3:30.750',1.08998138,-0.46005280,-0.21003037,29.70000000,0.35201587
'3:30.875',1.07998352,-0.46005280,-0.21003037,29.89998474,0.34905234
'3:31.000',1.07998352,-0.46005280,-0.21003037,29.70000000,0.34905234
'3:31.125',1.08998138,-0.46005280,-0.21003037,29.89998474,0.35401303
'3:31.250',1.07998352,-0.46005280,-0.21003037,29.89998474,0.34905234
'3:31.375',1.07998352,-0.45005005,-0.21003037,29.70000000,0.34905234
'3:31.500',1.07998352,-0.46005280,-0.21003037,29.70000000,0.35201587
'3:31.625',1.08998138,-0.46005280,-0.21003037,29.89998474,0.34905234
'3:31.750',1.07998352,-0.46005280,-0.21003037,29.70000000,0.35201587
'3:31.875',1.07998352,-0.46005280,-0.21003037,29.89998474,0.35201587
'3:32.000',1.07998352,-0.46005280,-0.21003037,29.70000000,0.35201587
'3:32.125',1.08998138,-0.45005005,-0.21003037,29.89998474,0.35201587
'3:32.250',1.07998352,-0.46005280,-0.21003037,29.89998474,0.34905234
'3:32.375',1.08998138,-0.46005280,-0.21003037,29.89998474,0.34905234
'3:32.500',1.07998352,-0.46005280,-0.21003037,29.89998474,0.34905234
'3:32.625',1.07998352,-0.46005280,-0.21003037,29.89998474,0.35201587
'3:32.750',1.07998352,-0.46005280,-0.21003037,29.89998474,0.34905234
'3:32.875',1.07998352,-0.46005280,-0.21003037,29.70000000,0.34905234
'3:33.000',1.08998138,-0.45005005,-0.21003037,29.89998474,0.34905234
'3:33.125',1.08998138,-0.46005280,-0.21003037,29.89998474,0.34905234
'3:33.250',1.08998138,-0.46005280,-0.21003037,29.70000000,0.34905234
'3:33.375',1.08998138,-0.46005280,-0.21003037,29.70000000,0.35401303
'3:33.500',1.08998138,-0.46005280,-0.20001282,29.89998474,0.35104950
'3:33.625',1.07998352,-0.46005280,-0.21003037,29.89998474,0.34905234
'3:33.750',1.08998138,-0.45005005,-0.21003037,29.89998474,0.35201587
'3:33.875',1.08998138,-0.46005280,-0.21003037,29.70000000,0.34905234
'3:34.000',1.08998138,-0.46005280,-0.20001282,29.89998474,0.35201587
'3:34.125',1.08998138,-0.46005280,-0.21003037,29.70000000,0.34905234
'3:34.250',1.08998138,-0.46005280,-0.21003037,29.89998474,0.34905234
'3:34.375',1.07998352,-0.46005280,-0.21003037,29.70000000,0.34905234
'3:34.500',1.07998352,-0.46005280,-0.21003037,29.70000000,0.35201587
'3:34.625',1.07998352,-0.46005280,-0.21003037,29.89998474,0.35104950
'3:34.750',1.07998352,-0.46005280,-0.21003037,29.89998474,0.35201587
'3:34.875',1.07998352,-0.46005280,-0.21003037,29.70000000,0.35401303
'3:35.000',1.08998138,-0.45005005,-0.21003037,29.89998474,0.35201587
'3:35.125',1.07998352,-0.46005280,-0.21003037,29.89998474,0.34905234
'3:35.250',1.07998352,-0.46005280,-0.21003037,29.89998474,0.34905234
'3:35.375',1.08998138,-0.46005280,-0.21003037,29.89998474,0.34905234
'3:35.500',1.07998352,-0.46005280,-0.21003037,29.89998474,0.34905234
'3:35.625',1.07998352,-0.46005280,-0.21003037,29.89998474,0.34905234
'3:35.750',1.07998352,-0.46005280,-0.21003037,29.89998474,0.34905234
'3:35.875',1.08998138,-0.46005280,-0.21003037,29.89998474,0.35401303
'3:36.000',1.07998352,-0.46005280,-0.21003037,29.89998474,0.34905234
'3:36.125',1.08998138,-0.46005280,-0.21003037,29.89998474,0.34905234
'3:36.250',1.08998138,-0.46005280,-0.21003037,29.89998474,0.34905234
'3:36.375',1.07998352,-0.46005280,-0.21003037,29.89998474,0.35201587
'3:36.500',1.07998352,-0.46005280,-0.20001282,29.89998474,0.34905234
'3:36.625',1.07998352,-0.46005280,-0.21003037,29.89998474,0.34905234
'3:36.750',1.08998138,-0.46005280,-0.20001282,29.89998474,0.34905234
'3:36.875',1.08998138,-0.46005280,-0.21003037,29.89998474,0.34905234
'3:37.000',1.08998138,-0.46005280,-0.21003037,29.89998474,0.34905234
'3:37.125',1.08998138,-0.46005280,-0.21003037,29.89998474,0.34905234
